timestamp,acc_x,acc_y,acc_z,gyro_x,gyro_y,gyro_z,mag_x,mag_y,mag_z,external_e,external_n,true_e,true_n,true_heading,is_step
0.0000,0.09515231,-0.05617707,9.84051393,-0.00185160,0.00755598,0.01956442,1.02740651,-0.01028240,0.34752228,,,0.00000000,0.00000000,0.00000000,0
0.0100,0.01998437,0.09188235,9.83575800,-0.00253517,-0.00334794,0.01272925,1.05499763,-0.03805925,0.35161917,,,0.00000000,0.00000000,0.00000000,0
0.0200,0.01570557,-0.00179287,9.86033836,-0.00065835,0.00051287,0.01600143,1.04173667,-0.02876566,0.35276403,,,0.00000000,0.00000000,0.00000000,0
0.0300,0.02421726,-0.11912537,9.86907828,-0.00491155,-0.00159563,0.01590897,1.04973097,-0.01248664,0.36758642,,,0.00000000,0.00000000,0.00000000,0
0.0400,0.00451350,0.06329022,9.92224708,-0.00618712,-0.00128272,0.01259267,1.03285530,-0.05728106,0.35659004,,,0.00000000,0.00000000,0.00000000,0
0.0500,0.03806851,0.02347048,9.84281044,0.00629288,-0.00036509,0.01571416,0.99824847,-0.02016657,0.36406971,,,0.00000000,0.00000000,0.00000000,0
0.0600,0.12417011,-0.03043196,9.91667059,0.00191550,0.00527856,0.01878530,1.02208369,-0.02149779,0.34522848,,,0.00000000,0.00000000,0.00000000,0
0.0700,-0.06327146,-0.00226560,9.73494367,-0.00201531,-0.00167374,0.01878942,1.05854872,-0.04129593,0.34270776,,,0.00000000,0.00000000,0.00000000,0
0.0800,-0.12282632,-0.05435815,9.79800579,0.01022626,-0.00260675,0.01358718,1.03033568,-0.02653632,0.33970695,,,0.00000000,0.00000000,0.00000000,0
0.0900,0.05312422,0.14958053,9.80346215,0.00310320,-0.00042330,0.02579575,1.07308271,-0.03550461,0.38069224,,,0.00000000,0.00000000,0.00000000,0
0.1000,-0.00991549,-0.01356768,9.90944106,0.00480164,0.00015142,0.01616237,1.03577044,-0.03469296,0.34454224,,,0.00000000,0.00000000,0.00000000,0
0.1100,0.02588751,-0.04647443,9.92619704,-0.00792906,-0.00030636,0.01381027,1.02879785,-0.02359957,0.37256495,,,0.00000000,0.00000000,0.00000000,0
0.1200,0.08159261,-0.11269407,9.86366549,0.00103717,-0.00519042,0.01213572,1.04154291,-0.04314130,0.35809122,,,0.00000000,0.00000000,0.00000000,0
0.1300,0.04282295,-0.11435877,9.89078713,-0.00597421,-0.00156138,0.01114932,1.02835691,-0.06939523,0.35680617,,,0.00000000,0.00000000,0.00000000,0
0.1400,-0.02863652,0.04776534,9.88541967,0.00225501,0.00523705,0.01792157,1.01431867,-0.03932734,0.35574711,,,0.00000000,0.00000000,0.00000000,0
0.1500,0.04714452,-0.07728227,9.86051121,-0.00355090,0.00768307,0.00401305,1.03407213,-0.03388968,0.37769644,,,0.00000000,0.00000000,0.00000000,0
0.1600,-0.11981970,-0.12051260,9.89902718,0.00232495,0.00231466,0.01427358,1.05400992,-0.00776560,0.35809680,,,0.00000000,0.00000000,0.00000000,0
0.1700,-0.13028536,0.03772868,9.73031228,0.00391496,0.00259320,0.00968524,1.04329685,-0.00408654,0.34578542,,,0.00000000,0.00000000,0.00000000,0
0.1800,0.10053908,-0.09763976,9.93231929,-0.00353308,-0.00253506,0.01420697,1.04485228,-0.02807186,0.35927212,,,0.00000000,0.00000000,0.00000000,0
0.1900,0.05047610,-0.15294680,9.96993190,0.00026569,-0.00003159,0.01471960,1.04873391,-0.02827264,0.36685667,,,0.00000000,0.00000000,0.00000000,0
0.2000,0.15533657,-0.03526439,9.84808670,0.00000104,-0.00181044,0.00993513,1.02755767,-0.02275676,0.33966874,,,0.00000000,0.00000000,0.00000000,0
0.2100,0.02721064,-0.10801219,9.95788694,0.00323189,0.00224125,0.01114077,1.05574742,-0.01568362,0.35188017,,,0.00000000,0.00000000,0.00000000,0
0.2200,-0.00343135,-0.03409523,9.80653629,0.00188252,0.00147206,0.01961319,1.03245896,-0.03049606,0.36298957,,,0.00000000,0.00000000,0.00000000,0
0.2300,-0.01008585,-0.13221801,9.97056555,-0.00744186,-0.00491547,0.01277238,1.01774295,-0.04482981,0.36860760,,,0.00000000,0.00000000,0.00000000,0
0.2400,0.02767299,0.04727373,9.87106597,0.00634071,-0.00352948,0.01482327,1.03670725,-0.04896156,0.32230190,,,0.00000000,0.00000000,0.00000000,0
0.2500,-0.01555228,-0.05613482,9.82518152,-0.00453617,-0.00206791,0.01366300,1.03333009,-0.05586280,0.35662989,,,0.00000000,0.00000000,0.00000000,0
0.2600,0.04063673,-0.06002135,9.84600626,-0.00838177,-0.01142867,0.01796432,1.03856560,-0.00338166,0.33643286,,,0.00000000,0.00000000,0.00000000,0
0.2700,-0.07028597,-0.09454767,10.00232460,0.00003626,-0.00251866,0.01942912,1.04900657,-0.04780957,0.33959215,,,0.00000000,0.00000000,0.00000000,0
0.2800,-0.01369866,-0.11432750,9.89698611,0.00377315,-0.00847491,0.01829404,1.03662971,-0.04271143,0.38124286,,,0.00000000,0.00000000,0.00000000,0
0.2900,0.15258178,-0.14632194,9.85331825,0.00432211,-0.00277521,0.01692300,1.03883513,-0.04137153,0.38836189,,,0.00000000,0.00000000,0.00000000,0
0.3000,-0.01056420,-0.17088156,9.92879414,0.00370527,-0.00117466,0.01695860,1.02796926,-0.03589312,0.35148199,,,0.00000000,0.00000000,0.00000000,0
0.3100,0.03812449,-0.02428465,9.80981508,-0.00284649,-0.00540064,0.01038882,1.02818618,-0.02167229,0.37190643,,,0.00000000,0.00000000,0.00000000,0
0.3200,0.07638273,-0.07314379,9.85856774,-0.00699320,0.00389827,0.01976167,1.02067544,-0.03762705,0.34893969,,,0.00000000,0.00000000,0.00000000,0
0.3300,-0.04866086,-0.12728822,9.97684255,0.00007541,-0.00596573,0.01274653,1.01902260,-0.04980849,0.34896942,,,0.00000000,0.00000000,0.00000000,0
0.3400,-0.00056838,-0.00666557,9.86729677,0.00398037,0.00438042,0.01151011,1.02622727,-0.02610098,0.36626664,,,0.00000000,0.00000000,0.00000000,0
0.3500,0.00470838,-0.07063688,9.92040661,-0.00046075,0.00032366,0.01343403,1.04202747,-0.02652620,0.34090475,,,0.00000000,0.00000000,0.00000000,0
0.3600,0.01585059,-0.04211549,9.87177772,0.00235638,-0.00170121,0.01186261,1.03053121,-0.02505932,0.36259284,,,0.00000000,0.00000000,0.00000000,0
0.3700,0.13412067,0.02444088,9.90060802,0.00119621,0.00446803,0.01639435,1.03797581,-0.02283510,0.35060669,,,0.00000000,0.00000000,0.00000000,0
0.3800,-0.00508571,-0.14055750,9.94596239,0.00260513,-0.00302458,0.01756072,1.02229859,-0.02626398,0.34806974,,,0.00000000,0.00000000,0.00000000,0
0.3900,0.11731577,-0.04125667,9.91335071,-0.00527019,-0.00128800,0.01965616,1.01449756,-0.01858179,0.35977630,,,0.00000000,0.00000000,0.00000000,0
0.4000,0.10251544,0.03649476,9.94371068,0.00323697,-0.00514016,0.01449052,1.04977472,-0.03763784,0.37572809,,,0.00000000,0.00000000,0.00000000,0
0.4100,0.00355059,0.09119784,9.77027256,-0.00059327,0.00492613,0.01261055,1.04615892,-0.01662337,0.34474379,,,0.00000000,0.00000000,0.00000000,0
0.4200,0.10893785,0.00951457,9.93988953,-0.01018530,-0.00115490,0.01379893,1.03469154,-0.01220134,0.35383169,,,0.00000000,0.00000000,0.00000000,0
0.4300,0.19032066,0.08875564,9.77838585,-0.00980364,0.00296893,0.01044543,1.03956292,-0.00920178,0.37096461,,,0.00000000,0.00000000,0.00000000,0
0.4400,-0.09509373,0.03535112,9.78879901,-0.00197241,0.00078924,0.01208237,1.04255159,-0.00316121,0.33272351,,,0.00000000,0.00000000,0.00000000,0
0.4500,0.03900757,0.03717820,9.73849621,0.00067488,-0.00269270,0.02234798,1.03830524,-0.03872179,0.37556371,,,0.00000000,0.00000000,0.00000000,0
0.4600,-0.12879844,-0.00925608,9.87355087,0.00269736,0.01392117,0.01195296,1.06207681,-0.03764775,0.35639637,,,0.00000000,0.00000000,0.00000000,0
0.4700,0.02033575,-0.02691722,9.80115875,0.00210373,-0.00031316,0.01312242,1.05285810,-0.02315128,0.35816285,,,0.00000000,0.00000000,0.00000000,0
0.4800,-0.08107955,-0.04333239,9.79226330,0.00092306,0.00596139,0.01720977,1.05372286,-0.00258820,0.35610980,,,0.00000000,0.00000000,0.00000000,0
0.4900,-0.09147851,0.01045449,9.86508811,0.00344978,-0.00102122,0.01580649,1.02345425,-0.03217723,0.35384927,,,0.00000000,0.00000000,0.00000000,0
0.5000,0.07252228,-0.10914360,9.81735530,-0.00670982,0.00222455,0.01772466,1.03395188,-0.02052175,0.36496146,,,0.00000000,0.00000000,0.00000000,0
0.5100,-0.03992344,-0.10093135,9.88563263,0.00094659,-0.00458573,0.01158849,1.05246025,-0.02370135,0.35819399,,,0.00000000,0.00000000,0.00000000,0
0.5200,-0.02263797,-0.00151470,9.89718047,-0.00106384,0.00027295,0.01083861,1.02472060,-0.03548085,0.34207198,,,0.00000000,0.00000000,0.00000000,0
0.5300,0.20201288,-0.14142312,9.94103219,-0.00439126,0.00211275,0.01979849,1.04405996,-0.03225218,0.35387857,,,0.00000000,0.00000000,0.00000000,0
0.5400,0.03284096,-0.03112238,9.75401089,-0.00237595,-0.00292647,0.01230110,1.04699482,-0.03476240,0.36975411,,,0.00000000,0.00000000,0.00000000,0
0.5500,0.00318449,0.02945578,9.86340173,0.00977888,0.00182285,0.01447895,1.05446062,-0.04406653,0.37322314,,,0.00000000,0.00000000,0.00000000,0
0.5600,0.04648435,-0.05325733,9.96236558,0.00388726,0.00904499,0.01564579,1.03462052,-0.04092481,0.34994575,,,0.00000000,0.00000000,0.00000000,0
0.5700,0.03828219,-0.20603325,9.81463420,-0.00585365,-0.00048465,0.00790718,1.02128379,-0.02568525,0.37170032,,,0.00000000,0.00000000,0.00000000,0
0.5800,-0.11750373,-0.29011507,9.82759077,-0.00151741,-0.00501767,0.01412495,1.01776537,-0.02445319,0.36278702,,,0.00000000,0.00000000,0.00000000,0
0.5900,0.14668479,-0.02623041,9.77619634,-0.00448961,0.00120874,0.01240365,1.04887520,-0.02134031,0.36067668,,,0.00000000,0.00000000,0.00000000,0
0.6000,-0.03525599,0.06044906,9.88261013,-0.00581590,-0.00699138,0.01681280,1.03279492,-0.01779860,0.35921614,,,0.00000000,0.00000000,0.00000000,0
0.6100,0.04383994,-0.03427694,9.87307202,0.00245430,0.00182707,0.01367710,1.05084380,-0.02609304,0.35073247,,,0.00000000,0.00000000,0.00000000,0
0.6200,0.10443245,0.01420538,9.88725638,-0.01339810,-0.00213915,0.00639868,1.03880214,-0.02185147,0.36930549,,,0.00000000,0.00000000,0.00000000,0
0.6300,-0.04342947,0.01088870,9.81526023,-0.00150151,-0.00504890,0.01780363,1.01216311,-0.04880791,0.33114122,,,0.00000000,0.00000000,0.00000000,0
0.6400,0.12750765,-0.13168407,9.85899032,-0.00282489,0.01072610,0.00524866,1.03186171,-0.04011836,0.35726993,,,0.00000000,0.00000000,0.00000000,0
0.6500,0.03941134,-0.13597164,10.00775773,-0.00093405,-0.00035251,0.01330224,1.03508950,-0.01156269,0.34562900,,,0.00000000,0.00000000,0.00000000,0
0.6600,0.15683254,-0.06708670,9.93173769,0.00059517,-0.00178476,0.01224022,1.02927944,-0.04232483,0.35013003,,,0.00000000,0.00000000,0.00000000,0
0.6700,0.07029409,-0.23908476,9.89003184,0.00395698,0.00317434,0.01254690,1.04171848,-0.03750825,0.34119775,,,0.00000000,0.00000000,0.00000000,0
0.6800,0.03509247,-0.02334261,9.78385001,0.00518251,0.00073938,0.01479620,1.01991411,-0.02800525,0.34654209,,,0.00000000,0.00000000,0.00000000,0
0.6900,0.01845224,-0.04426070,9.96504754,-0.00717100,-0.00295124,0.01841720,1.02532711,-0.03449835,0.35909002,,,0.00000000,0.00000000,0.00000000,0
0.7000,0.06675416,-0.03044440,9.99231760,0.00143686,0.00416100,0.01156886,1.06857259,-0.00745665,0.34165016,,,0.00000000,0.00000000,0.00000000,0
0.7100,-0.00441983,-0.06115442,9.72465960,-0.00339204,0.00293322,0.01254487,1.03292254,-0.05856383,0.32633053,,,0.00000000,0.00000000,0.00000000,0
0.7200,0.16552847,0.04714659,9.94334784,-0.00207685,0.00119340,0.01763249,1.01295648,-0.01769731,0.35212527,,,0.00000000,0.00000000,0.00000000,0
0.7300,0.09351188,-0.02118811,9.88723912,0.00112614,-0.00038018,0.01674743,1.01833149,-0.04031374,0.34709311,,,0.00000000,0.00000000,0.00000000,0
0.7400,0.01983947,-0.04628803,9.87434429,0.00515761,0.00242300,0.01753485,1.02981999,-0.00981595,0.32671197,,,0.00000000,0.00000000,0.00000000,0
0.7500,0.16094636,0.01445503,9.86532319,-0.00202576,-0.00516017,0.01609482,1.03276730,-0.02725087,0.36109864,,,0.00000000,0.00000000,0.00000000,0
0.7600,-0.00635136,-0.08079988,9.99821640,-0.00058874,0.00424182,0.01392778,1.00817740,-0.02811009,0.33625697,,,0.00000000,0.00000000,0.00000000,0
0.7700,0.08053498,-0.02459596,9.84230545,0.00562130,-0.00001985,0.01300660,1.03098668,-0.05345259,0.36524332,,,0.00000000,0.00000000,0.00000000,0
0.7800,-0.04872427,-0.03534892,9.93989264,-0.00405077,0.00122999,0.01306241,1.08369028,-0.01629824,0.34999293,,,0.00000000,0.00000000,0.00000000,0
0.7900,0.00859702,-0.04817941,9.85231725,0.00029967,-0.00605602,0.01824886,1.01420030,-0.01829891,0.37137074,,,0.00000000,0.00000000,0.00000000,0
0.8000,0.04876755,-0.15744087,9.85116813,0.00198664,-0.00577093,0.02046195,1.02355290,-0.01727302,0.32866453,,,0.00000000,0.00000000,0.00000000,0
0.8100,-0.02835164,0.04076680,9.80835211,0.00078299,-0.00397134,0.02229000,1.02104369,-0.02864243,0.33438312,,,0.00000000,0.00000000,0.00000000,0
0.8200,0.08616374,0.09195500,9.84491230,-0.00487392,-0.00752135,0.01093743,1.05009630,-0.01028900,0.35522526,,,0.00000000,0.00000000,0.00000000,0
0.8300,-0.00812610,-0.01468542,9.86983768,0.00582372,-0.00362065,0.01395285,1.04638348,-0.00776180,0.36179174,,,0.00000000,0.00000000,0.00000000,0
0.8400,-0.03948931,0.00687355,10.03124128,0.00082939,-0.00396580,0.01486306,1.05810730,-0.01005877,0.33950004,,,0.00000000,0.00000000,0.00000000,0
0.8500,0.01935104,-0.04623010,9.78640544,0.00055217,0.00162782,0.01422713,1.07079317,-0.01354029,0.35678874,,,0.00000000,0.00000000,0.00000000,0
0.8600,0.06552708,-0.12975810,9.78144552,-0.00717029,-0.01119843,0.01060764,1.05141360,-0.02579083,0.35798727,,,0.00000000,0.00000000,0.00000000,0
0.8700,0.14237338,-0.10243624,9.95650861,-0.00107406,0.00274367,0.02304747,1.02545778,-0.03601764,0.34998835,,,0.00000000,0.00000000,0.00000000,0
0.8800,0.16194864,-0.00925388,9.91427131,-0.00116919,-0.00122938,0.02052748,1.05528975,-0.02338259,0.36061208,,,0.00000000,0.00000000,0.00000000,0
0.8900,0.19618008,-0.04573827,9.82255954,0.00597401,-0.00345063,0.01423126,1.03817749,-0.01215985,0.31986299,,,0.00000000,0.00000000,0.00000000,0
0.9000,-0.06825849,-0.02666343,9.98833154,-0.00113985,-0.00149039,0.01314052,1.02683731,-0.01658952,0.34893829,,,0.00000000,0.00000000,0.00000000,0
0.9100,0.11676763,-0.10536730,9.80156997,-0.00331576,-0.00442877,0.01481820,1.04902257,-0.00751329,0.36629137,,,0.00000000,0.00000000,0.00000000,0
0.9200,-0.00033370,-0.00661855,9.85357509,-0.00024881,-0.00120292,0.01030022,1.01883582,-0.03337747,0.33842799,,,0.00000000,0.00000000,0.00000000,0
0.9300,0.05715632,-0.00626085,9.84609811,0.00184274,-0.00162828,0.01357431,1.04661637,-0.01533372,0.35145138,,,0.00000000,0.00000000,0.00000000,0
0.9400,0.03678608,-0.01347261,9.86328242,0.00151287,0.00578883,0.01776038,1.04717997,-0.03298547,0.38230278,,,0.00000000,0.00000000,0.00000000,0
0.9500,0.08028167,0.11967006,9.91735778,0.00328820,-0.00095553,0.02108393,1.04177405,-0.02681590,0.36296661,,,0.00000000,0.00000000,0.00000000,0
0.9600,0.04446484,-0.16488949,9.90103657,-0.00251664,0.01127273,0.01820202,1.05497529,-0.02017374,0.35452036,,,0.00000000,0.00000000,0.00000000,0
0.9700,-0.11573427,-0.14272273,9.93837114,0.00208426,0.00530027,0.01973673,1.04071902,-0.02280174,0.36336264,,,0.00000000,0.00000000,0.00000000,0
0.9800,0.09649880,-0.04199512,9.73319911,-0.00344479,-0.00171862,0.01087762,1.03460024,-0.03828188,0.35159875,,,0.00000000,0.00000000,0.00000000,0
0.9900,0.01029212,-0.08429907,9.92094726,-0.00521298,-0.00220412,0.00265147,1.04656528,-0.03640328,0.33956716,,,0.00000000,0.00000000,0.00000000,0
1.0000,0.22061844,-0.01264556,9.80765511,0.00276448,0.00000655,0.02004510,1.03520983,-0.03702043,0.36362396,,,0.00000000,0.00000000,0.00000000,0
1.0100,-0.05364412,-0.03448754,9.85585654,-0.00677910,0.00265659,0.01554763,1.03265386,-0.03583189,0.38169374,,,0.00000000,0.00000000,0.00000000,0
1.0200,-0.05212153,-0.02069158,9.77792692,-0.00446029,0.00069919,0.01454338,1.04636418,-0.04317873,0.37212559,,,0.00000000,0.00000000,0.00000000,0
1.0300,0.12896858,0.05501205,9.95678010,-0.00220150,-0.00408428,0.02115632,1.03479869,-0.04155003,0.36423771,,,0.00000000,0.00000000,0.00000000,0
1.0400,0.00207596,0.01116165,9.85943444,-0.00389901,0.00172012,0.01122297,1.01990783,-0.03091647,0.36302210,,,0.00000000,0.00000000,0.00000000,0
1.0500,0.00889504,-0.05713165,9.76602278,0.00116494,-0.00085435,0.01124841,1.05065281,-0.03747784,0.34791467,,,0.00000000,0.00000000,0.00000000,0
1.0600,-0.07550910,0.03354518,9.85470117,0.00804822,-0.00757328,0.01204974,1.03882645,-0.01271613,0.32949411,,,0.00000000,0.00000000,0.00000000,0
1.0700,0.05731399,0.05013683,9.73134940,0.00129275,0.00015478,0.02095889,1.05170758,-0.02569589,0.37451062,,,0.00000000,0.00000000,0.00000000,0
1.0800,-0.02273041,-0.01597321,9.90136758,-0.00099666,-0.00486575,0.01842826,1.02409747,-0.01354625,0.34271175,,,0.00000000,0.00000000,0.00000000,0
1.0900,0.00983404,0.05233434,9.88683160,-0.00056698,-0.00674495,0.00812123,1.04432612,-0.03552609,0.32011074,,,0.00000000,0.00000000,0.00000000,0
1.1000,-0.05707057,-0.10446110,9.93443768,0.00434109,-0.01388102,0.02111527,1.03923598,-0.02434565,0.36734874,,,0.00000000,0.00000000,0.00000000,0
1.1100,0.07710652,-0.18192490,9.97781698,0.00097087,0.00073081,0.01490820,1.03110912,-0.04652928,0.36515208,,,0.00000000,0.00000000,0.00000000,0
1.1200,0.08784216,0.07746744,9.83930393,0.00157190,0.00287132,0.01646902,1.03500331,-0.01502306,0.37537486,,,0.00000000,0.00000000,0.00000000,0
1.1300,0.01634350,-0.12011657,10.07295437,0.00704665,-0.00000518,0.01193345,1.03678694,-0.03232487,0.34482899,,,0.00000000,0.00000000,0.00000000,0
1.1400,0.02596366,0.09700266,9.81821660,-0.00660238,-0.00063552,0.02196258,1.01124375,-0.02997613,0.36547441,,,0.00000000,0.00000000,0.00000000,0
1.1500,0.05310730,-0.16370820,9.83937063,0.00546527,0.00923311,0.01651078,1.05523098,-0.03016813,0.38147807,,,0.00000000,0.00000000,0.00000000,0
1.1600,0.11870039,-0.13013951,9.95577820,-0.00530759,-0.00055537,0.01983761,1.03267736,-0.03019021,0.34740562,,,0.00000000,0.00000000,0.00000000,0
1.1700,0.06697903,-0.11351607,9.82987222,0.00069101,0.00425444,0.01107907,1.03386632,-0.03378983,0.34535018,,,0.00000000,0.00000000,0.00000000,0
1.1800,0.00327475,-0.03396155,9.82710848,-0.01069877,0.00536623,0.01750105,1.03417858,-0.02580966,0.35674836,,,0.00000000,0.00000000,0.00000000,0
1.1900,-0.02618303,-0.05436702,9.78784882,-0.00233504,0.00556871,0.01519829,1.02528938,-0.02259227,0.34354141,,,0.00000000,0.00000000,0.00000000,0
1.2000,-0.06316213,-0.03385412,9.94062994,-0.00557923,-0.00539910,0.01400127,1.04668671,-0.02877606,0.32783131,,,0.00000000,0.00000000,0.00000000,0
1.2100,-0.08234974,-0.02971935,9.81800350,0.00353388,0.00590853,0.01177471,1.02543258,-0.01626181,0.34603489,,,0.00000000,0.00000000,0.00000000,0
1.2200,-0.03817163,0.03827501,9.82854642,-0.00196830,0.00639785,0.01220095,1.03085004,-0.03598552,0.35682243,,,0.00000000,0.00000000,0.00000000,0
1.2300,0.15986413,-0.09238715,9.90092016,0.00573850,0.00084470,0.01042301,1.04842025,-0.03398286,0.37929697,,,0.00000000,0.00000000,0.00000000,0
1.2400,0.02181736,-0.09032174,9.91701400,-0.00103386,0.00109469,0.01233816,1.03209235,-0.03640636,0.35260596,,,0.00000000,0.00000000,0.00000000,0
1.2500,0.02760139,0.01825685,9.86621668,-0.00280822,-0.00063279,0.01475754,1.04261880,-0.00890928,0.38874982,,,0.00000000,0.00000000,0.00000000,0
1.2600,-0.04686530,-0.03816554,9.87415641,0.00112504,0.00024975,0.01706303,1.03538509,-0.03216651,0.36429181,,,0.00000000,0.00000000,0.00000000,0
1.2700,0.11667704,-0.10250152,9.86685361,-0.00088987,-0.00100532,0.00893523,1.03852508,-0.01745352,0.34007839,,,0.00000000,0.00000000,0.00000000,0
1.2800,-0.09775030,0.02211944,9.78348136,-0.00012809,-0.00246686,0.01092282,1.05243866,-0.06094385,0.36276303,,,0.00000000,0.00000000,0.00000000,0
1.2900,-0.10450876,-0.03473735,9.95845480,0.00255772,-0.00089383,0.01252670,1.04981359,0.00580450,0.34221130,,,0.00000000,0.00000000,0.00000000,0
1.3000,-0.08195576,-0.11704285,9.81053801,-0.00111712,0.00056607,0.00863621,1.05018144,-0.02047400,0.34173517,,,0.00000000,0.00000000,0.00000000,0
1.3100,-0.05035973,0.00035423,9.80541060,0.00168126,-0.00663432,0.01375532,1.04391334,-0.04188500,0.33852633,,,0.00000000,0.00000000,0.00000000,0
1.3200,-0.01772118,0.01666443,9.80955883,-0.01060350,0.00311002,0.01384582,1.01857103,-0.03294328,0.34009524,,,0.00000000,0.00000000,0.00000000,0
1.3300,0.07462241,-0.10771081,9.77302892,0.00510397,0.00047898,0.01412465,1.01041318,-0.02572168,0.33055696,,,0.00000000,0.00000000,0.00000000,0
1.3400,-0.10683594,0.11889622,9.84437928,-0.00024406,-0.00057896,0.01641386,1.05010718,-0.02637410,0.34326624,,,0.00000000,0.00000000,0.00000000,0
1.3500,0.05951467,-0.03248396,9.88279694,-0.00322393,-0.00246218,0.01842920,1.01732728,-0.04297388,0.33567664,,,0.00000000,0.00000000,0.00000000,0
1.3600,0.04397492,0.12265736,9.78688587,0.00653463,-0.00197024,0.01789186,1.03462210,-0.03521185,0.39068319,,,0.00000000,0.00000000,0.00000000,0
1.3700,-0.08459697,-0.11095677,9.76322328,0.00100651,-0.00318888,0.01591000,1.00989257,-0.03846648,0.36310094,,,0.00000000,0.00000000,0.00000000,0
1.3800,0.09975696,0.03563026,9.79309476,-0.00310707,-0.00584146,0.01709572,1.05489662,-0.01058061,0.34086670,,,0.00000000,0.00000000,0.00000000,0
1.3900,-0.07123486,-0.05838373,9.98128991,-0.00066508,-0.00082276,0.01182804,1.05166719,-0.07161631,0.35179096,,,0.00000000,0.00000000,0.00000000,0
1.4000,-0.18556555,0.01213014,9.78393958,0.00183047,-0.00382410,0.01127108,1.05240196,-0.01967879,0.33460887,,,0.00000000,0.00000000,0.00000000,0
1.4100,0.12322937,-0.11623392,9.84716673,-0.00678177,0.00014558,0.01730689,1.02799519,-0.06125221,0.34420473,,,0.00000000,0.00000000,0.00000000,0
1.4200,-0.08050233,-0.10818063,9.98086713,-0.00326734,-0.00647537,0.01699638,1.02000443,-0.02604540,0.34397465,,,0.00000000,0.00000000,0.00000000,0
1.4300,0.10564629,-0.06213345,9.80038621,-0.00279716,0.00301472,0.02319158,1.04867364,-0.03164945,0.35010592,,,0.00000000,0.00000000,0.00000000,0
1.4400,-0.11150457,-0.06149254,9.86752774,-0.00013160,-0.00011469,0.01399297,1.06560805,-0.01306099,0.33572926,,,0.00000000,0.00000000,0.00000000,0
1.4500,0.03327565,-0.03750335,9.78025523,0.00139391,-0.00383458,0.01109579,1.06008157,-0.01894939,0.37427556,,,0.00000000,0.00000000,0.00000000,0
1.4600,0.03469809,-0.03309387,9.97324496,0.00210116,0.00069919,0.01595826,1.04652894,-0.05620264,0.34948211,,,0.00000000,0.00000000,0.00000000,0
1.4700,0.18933868,-0.04095912,9.80869552,-0.00069734,-0.00058195,0.01314230,1.00453342,-0.05044650,0.34478661,,,0.00000000,0.00000000,0.00000000,0
1.4800,0.03480143,-0.07860970,9.81060529,-0.00581486,0.00437840,0.01146242,1.05846228,-0.02945730,0.35810931,,,0.00000000,0.00000000,0.00000000,0
1.4900,0.03530799,-0.11346435,9.91848854,0.00077625,-0.00609151,0.02003961,1.05071232,-0.04327004,0.37105445,,,0.00000000,0.00000000,0.00000000,0
1.5000,0.03168676,-0.00999934,9.85536480,-0.00340678,0.01171312,0.02217848,1.04315747,-0.04409885,0.34655005,,,0.00000000,0.00000000,0.00000000,0
1.5100,-0.01818036,-0.10583676,9.85101792,-0.00395527,0.00364439,0.01626426,1.03636893,-0.02121382,0.37570899,,,0.00000000,0.00000000,0.00000000,0
1.5200,-0.00390083,-0.01128789,9.86964546,-0.00849801,0.00090342,0.01236549,1.03541274,-0.03335121,0.38122486,,,0.00000000,0.00000000,0.00000000,0
1.5300,-0.06898454,-0.02463030,9.76257117,-0.00498221,0.00260899,0.01582416,1.08661589,-0.00372409,0.35772732,,,0.00000000,0.00000000,0.00000000,0
1.5400,-0.00931821,-0.05354829,9.70397814,-0.00408429,-0.00150822,0.01464721,1.03465894,-0.02010061,0.35935685,,,0.00000000,0.00000000,0.00000000,0
1.5500,0.04732060,-0.01792133,9.85735806,-0.00564215,0.00878582,0.00956606,1.02831789,-0.01020302,0.39205228,,,0.00000000,0.00000000,0.00000000,0
1.5600,0.00605462,-0.05988829,9.79187684,-0.00308300,0.00328214,0.01802982,1.02757741,-0.04164831,0.34747357,,,0.00000000,0.00000000,0.00000000,0
1.5700,0.01842397,-0.07420894,9.87733483,0.00518804,-0.00117693,0.01616788,1.02139109,-0.01817776,0.33381851,,,0.00000000,0.00000000,0.00000000,0
1.5800,-0.05633089,-0.01115281,9.88145751,0.00025525,0.00054703,0.01963352,1.04968134,-0.02428118,0.36587049,,,0.00000000,0.00000000,0.00000000,0
1.5900,0.02867497,-0.06513639,9.91418719,-0.00053005,0.00654466,0.01274400,1.01816236,-0.02794035,0.35893653,,,0.00000000,0.00000000,0.00000000,0
1.6000,-0.09316814,0.00683627,9.88944300,-0.00228617,-0.00148098,0.01479532,1.05290909,-0.02456634,0.34636774,,,0.00000000,0.00000000,0.00000000,0
1.6100,0.06267010,0.00066501,9.81770845,0.00147742,0.00359802,0.01441799,1.05669275,-0.00972059,0.37479453,,,0.00000000,0.00000000,0.00000000,0
1.6200,0.01924320,0.02096467,9.90445114,0.00091381,-0.00081561,0.00829787,1.02896825,-0.02231504,0.34149092,,,0.00000000,0.00000000,0.00000000,0
1.6300,0.05653702,-0.15114562,9.91303097,0.00053451,-0.00793077,0.02442164,1.03741270,-0.01898183,0.33382388,,,0.00000000,0.00000000,0.00000000,0
1.6400,0.13355768,0.05077372,9.88871024,0.00045758,-0.00578394,0.00689855,1.08084022,-0.01202924,0.34362363,,,0.00000000,0.00000000,0.00000000,0
1.6500,-0.08461429,0.04540359,9.85821963,0.00603133,-0.00165497,0.01050192,1.03154785,-0.03117190,0.35284868,,,0.00000000,0.00000000,0.00000000,0
1.6600,-0.16260157,0.00017659,9.75062626,-0.00101008,-0.00333437,0.01351094,1.02208368,-0.03204571,0.33213247,,,0.00000000,0.00000000,0.00000000,0
1.6700,-0.06371525,-0.08079671,9.97180729,-0.00169126,0.00504009,0.00890867,1.03081319,-0.00364579,0.35398380,,,0.00000000,0.00000000,0.00000000,0
1.6800,0.01033237,-0.00832067,10.00983744,-0.00291429,0.00384318,0.01647238,1.03420622,-0.00687026,0.35963031,,,0.00000000,0.00000000,0.00000000,0
1.6900,0.16752238,-0.03826827,9.85067832,-0.00285393,0.00159108,0.01310040,1.04916848,-0.03850456,0.37113181,,,0.00000000,0.00000000,0.00000000,0
1.7000,-0.06086965,-0.08555665,9.90402867,-0.00633516,0.00501321,0.01515674,1.03506238,-0.01712495,0.36443103,,,0.00000000,0.00000000,0.00000000,0
1.7100,0.07165846,-0.02118094,9.94958413,0.00203212,-0.00615194,0.01576726,1.06548807,-0.01534969,0.35468158,,,0.00000000,0.00000000,0.00000000,0
1.7200,-0.02178944,-0.03448612,9.92849944,-0.00089639,-0.00185246,0.01516513,1.02426932,-0.03451803,0.34471448,,,0.00000000,0.00000000,0.00000000,0
1.7300,0.08673167,0.05567566,9.90176163,-0.00054275,-0.00025761,0.01525687,1.06259409,-0.03665420,0.32099697,,,0.00000000,0.00000000,0.00000000,0
1.7400,0.01524780,-0.00102462,9.78979238,-0.00037874,0.00381844,0.01431086,1.04560283,-0.01800124,0.34134988,,,0.00000000,0.00000000,0.00000000,0
1.7500,-0.09115675,0.01645374,9.86558877,0.00090831,-0.00465590,0.01651733,1.05054749,-0.04965872,0.35855229,,,0.00000000,0.00000000,0.00000000,0
1.7600,0.06467277,-0.16581475,9.84079088,0.00242153,0.00969847,0.01797838,1.03755224,-0.02542950,0.36119830,,,0.00000000,0.00000000,0.00000000,0
1.7700,-0.00798857,-0.09913697,9.68959880,0.00160625,0.00546283,0.01391606,1.02993987,-0.01810294,0.34749746,,,0.00000000,0.00000000,0.00000000,0
1.7800,0.01321012,0.04178434,9.90047982,0.00413153,-0.00225385,0.01319003,1.04169060,-0.00899087,0.34124270,,,0.00000000,0.00000000,0.00000000,0
1.7900,-0.00807573,-0.03119008,9.93054401,0.00422552,0.00082505,0.01336855,1.04103011,-0.00631399,0.37363388,,,0.00000000,0.00000000,0.00000000,0
1.8000,-0.18083343,-0.03996292,9.91345601,-0.00581506,0.00097965,0.01607587,1.02981274,-0.03928494,0.36307850,,,0.00000000,0.00000000,0.00000000,0
1.8100,0.09457029,0.10605842,9.96080365,-0.00115939,-0.00761371,0.01349636,1.03019332,-0.02898503,0.33460691,,,0.00000000,0.00000000,0.00000000,0
1.8200,0.06500503,-0.00584192,9.93295563,0.00073954,-0.00397435,0.01344542,1.04936027,-0.05397030,0.35690372,,,0.00000000,0.00000000,0.00000000,0
1.8300,-0.00314616,-0.03321504,9.94249912,-0.00351214,0.00542372,0.00914901,1.05034559,-0.04004434,0.33152999,,,0.00000000,0.00000000,0.00000000,0
1.8400,0.19659562,-0.04274138,9.86612794,-0.00139476,0.00186431,0.02228253,1.02098402,-0.05861664,0.38158221,,,0.00000000,0.00000000,0.00000000,0
1.8500,0.05587842,0.07745630,9.86757494,0.00083907,0.00285494,0.01020028,1.01121223,-0.04929673,0.35979362,,,0.00000000,0.00000000,0.00000000,0
1.8600,0.15754872,-0.10733258,9.85511710,0.00338903,-0.00475905,0.02134135,1.04064895,-0.01475640,0.37453527,,,0.00000000,0.00000000,0.00000000,0
1.8700,0.02414679,0.03292046,9.95362083,-0.00145644,0.00036048,0.01797091,1.04661566,-0.03105158,0.34649649,,,0.00000000,0.00000000,0.00000000,0
1.8800,-0.08075555,-0.10320941,9.89694820,-0.00255230,-0.00142384,0.01884609,1.03717115,-0.01596788,0.36403751,,,0.00000000,0.00000000,0.00000000,0
1.8900,-0.01269549,-0.15179422,9.95307840,-0.00221819,-0.00493443,0.01592563,1.04925032,-0.05515092,0.34347215,,,0.00000000,0.00000000,0.00000000,0
1.9000,0.07951761,0.00945420,9.83196434,0.00377742,-0.00109822,0.01681657,1.02963633,-0.03820882,0.33907348,,,0.00000000,0.00000000,0.00000000,0
1.9100,0.12231508,-0.04919680,9.95771482,-0.00332306,-0.00082759,0.01604877,1.05009440,-0.01424128,0.38210289,,,0.00000000,0.00000000,0.00000000,0
1.9200,-0.03293321,-0.09833084,9.88637306,0.00311873,0.00055570,0.01720589,1.03205914,-0.03159154,0.35631712,,,0.00000000,0.00000000,0.00000000,0
1.9300,-0.01618657,0.02403609,9.89080702,-0.00641231,0.00121628,0.01815730,1.03980222,-0.04262842,0.36687055,,,0.00000000,0.00000000,0.00000000,0
1.9400,-0.03383770,-0.02417075,9.84189778,0.00411749,0.00788507,0.02078158,1.00966634,-0.03728087,0.32641386,,,0.00000000,0.00000000,0.00000000,0
1.9500,0.11326663,-0.08060424,9.83486615,0.00373891,-0.00438538,0.01114947,1.04932521,-0.05092452,0.33760527,,,0.00000000,0.00000000,0.00000000,0
1.9600,0.13689895,0.14908747,10.02992069,0.00339284,0.00533393,0.01682909,1.03971703,-0.04568899,0.35865976,,,0.00000000,0.00000000,0.00000000,0
1.9700,0.04505784,-0.01249162,9.99267669,0.00177008,0.00578775,0.02115326,1.03411036,-0.00068983,0.33665031,,,0.00000000,0.00000000,0.00000000,0
1.9800,0.03004522,-0.10810793,9.87935005,0.00252418,0.00424384,0.02031303,1.02767744,-0.02151779,0.35670766,,,0.00000000,0.00000000,0.00000000,0
1.9900,0.07612134,-0.09633197,9.73830151,-0.00449586,0.00170807,0.01103384,1.04663030,-0.03442800,0.36916379,,,0.00000000,0.00000000,0.00000000,0
2.0000,-0.07493836,0.02323434,9.80932988,0.00239609,0.00253794,0.01616942,1.04514851,-0.01023401,0.33461035,,,0.00000000,0.00000000,0.00000000,0
2.0100,0.02869223,-0.01299531,9.91953127,0.00134522,0.00443149,0.01604606,1.04375283,-0.03339842,0.36095171,,,0.00000000,0.00000000,0.00000000,0
2.0200,0.01320778,0.00989726,9.79879518,-0.00107894,-0.00436535,0.01592921,1.02583545,-0.01788343,0.33495059,,,0.00000000,0.00000000,0.00000000,0
2.0300,0.01106288,-0.11195325,9.96054138,0.00765419,-0.00530127,0.00632558,1.05327304,-0.02181836,0.32792453,,,0.00000000,0.00000000,0.00000000,0
2.0400,0.03783334,-0.08914460,9.84181026,0.00356620,-0.00213845,0.01830888,1.04593978,-0.05914524,0.36344733,,,0.00000000,0.00000000,0.00000000,0
2.0500,0.02226172,0.02604158,9.74234911,-0.00402777,-0.00300427,0.00880295,1.01588733,-0.03108873,0.35091857,,,0.00000000,0.00000000,0.00000000,0
2.0600,-0.04297647,-0.06024858,10.07258447,0.00259782,0.00051122,0.02340786,1.01555620,-0.05788402,0.36249248,,,0.00000000,0.00000000,0.00000000,0
2.0700,0.11645431,-0.03891613,9.92695997,0.00085718,-0.00449765,0.01752367,1.03272658,-0.01368722,0.35426851,,,0.00000000,0.00000000,0.00000000,0
2.0800,0.20459489,-0.04869951,9.84068693,0.00468251,-0.00270390,0.01462531,1.08137258,-0.02736276,0.38153161,,,0.00000000,0.00000000,0.00000000,0
2.0900,0.13695548,0.00953404,9.92370665,0.00189918,0.00058706,0.01744477,1.04528361,-0.02869388,0.36317474,,,0.00000000,0.00000000,0.00000000,0
2.1000,-0.00065779,0.12393625,10.00676726,-0.00966536,-0.00618343,0.01556094,1.02868748,-0.03964153,0.37995178,,,0.00000000,0.00000000,0.00000000,0
2.1100,0.08527582,0.02474319,9.70781913,-0.00087751,-0.00360824,0.01296104,1.03722011,-0.04719269,0.36281324,,,0.00000000,0.00000000,0.00000000,0
2.1200,0.09101678,-0.04552869,9.90471246,0.00198645,-0.00488817,0.01465960,1.02754441,-0.02865570,0.37226547,,,0.00000000,0.00000000,0.00000000,0
2.1300,0.09459675,-0.05730334,9.73476146,0.00338850,0.00705636,0.01635853,1.05965214,-0.00237752,0.37287992,,,0.00000000,0.00000000,0.00000000,0
2.1400,0.06942997,-0.08931069,9.84358447,0.00107277,-0.00138834,0.01192283,1.05015187,-0.02146236,0.35980660,,,0.00000000,0.00000000,0.00000000,0
2.1500,-0.00836079,-0.05732594,9.68523832,-0.00054518,-0.00614671,0.01777720,1.03978580,0.00457925,0.35425291,,,0.00000000,0.00000000,0.00000000,0
2.1600,0.13735577,-0.00973231,9.95891194,0.00641883,0.00211412,0.01933175,1.06561066,-0.03132875,0.37372051,,,0.00000000,0.00000000,0.00000000,0
2.1700,0.19838735,-0.02819255,9.72580510,0.00245142,0.00149781,0.01917094,0.99769001,-0.02718768,0.34612989,,,0.00000000,0.00000000,0.00000000,0
2.1800,-0.03151095,-0.12655236,9.82985003,-0.00442807,-0.00128252,0.01958205,1.06424599,-0.00679525,0.34619130,,,0.00000000,0.00000000,0.00000000,0
2.1900,0.04637184,-0.19017498,9.89739804,-0.00271594,-0.00158147,0.02005101,1.03948963,-0.01537330,0.36028103,,,0.00000000,0.00000000,0.00000000,0
2.2000,-0.08082853,-0.00621078,9.86124071,0.00611728,-0.00222987,0.01776306,1.04223600,-0.01449984,0.33612791,,,0.00000000,0.00000000,0.00000000,0
2.2100,0.01490950,-0.03584344,9.82681776,0.00241692,0.00119758,0.02009882,1.06513674,-0.02231582,0.31256861,,,0.00000000,0.00000000,0.00000000,0
2.2200,-0.00899772,-0.16462051,9.86762981,0.00247240,0.00230782,0.01528781,1.02724082,-0.03017732,0.39024689,,,0.00000000,0.00000000,0.00000000,0
2.2300,0.18764270,0.12843961,9.97574541,0.01162045,0.00545632,0.01663103,1.04096971,-0.05152164,0.37670913,,,0.00000000,0.00000000,0.00000000,0
2.2400,0.09646413,-0.08411841,9.98542006,0.00414962,0.01171646,0.02053504,1.04722154,-0.02882365,0.37208692,,,0.00000000,0.00000000,0.00000000,0
2.2500,0.03550980,-0.03551004,9.84670183,-0.00264987,0.00141192,0.02254761,1.03550144,-0.03032944,0.37150465,,,0.00000000,0.00000000,0.00000000,0
2.2600,0.04735695,-0.06481719,9.86329743,-0.00205686,0.00117645,0.01370070,1.04810458,-0.01387928,0.35099076,,,0.00000000,0.00000000,0.00000000,0
2.2700,-0.04676793,-0.05989310,10.05244452,-0.00005575,-0.00173744,0.00944926,1.06689053,-0.04981024,0.33592053,,,0.00000000,0.00000000,0.00000000,0
2.2800,0.03443248,-0.04909285,9.91258994,-0.00607143,0.00338530,0.02335456,1.04919681,-0.03299018,0.35970750,,,0.00000000,0.00000000,0.00000000,0
2.2900,0.09664975,-0.11910151,9.85342730,0.00123987,-0.00911872,0.01953837,1.04227224,-0.03060972,0.34076197,,,0.00000000,0.00000000,0.00000000,0
2.3000,0.11346207,-0.00841299,9.87975632,-0.00659790,-0.00321233,0.02212939,1.04635876,-0.00852615,0.34417072,,,0.00000000,0.00000000,0.00000000,0
2.3100,0.16432141,-0.08422182,9.87661967,-0.00220171,-0.00142477,0.01856660,1.07023536,-0.00460007,0.34413296,,,0.00000000,0.00000000,0.00000000,0
2.3200,-0.00160469,0.08922466,9.71385117,-0.00153759,0.00100010,0.01600345,1.05395838,-0.04462083,0.35499347,,,0.00000000,0.00000000,0.00000000,0
2.3300,-0.01361134,-0.07233256,9.92308317,-0.00095154,0.00102922,0.01261051,1.02542443,-0.03617037,0.32899137,,,0.00000000,0.00000000,0.00000000,0
2.3400,0.08850204,0.08161554,9.74407737,-0.00246489,-0.00276402,0.01135265,1.03952722,-0.04386059,0.34345112,,,0.00000000,0.00000000,0.00000000,0
2.3500,0.10003800,-0.05346239,9.81674998,-0.00315579,0.00500141,0.02069883,1.01225526,-0.02752778,0.38546123,,,0.00000000,0.00000000,0.00000000,0
2.3600,0.08316548,-0.10361117,9.70384694,0.00594345,-0.00232450,0.01888966,1.03640552,-0.03040061,0.33977856,,,0.00000000,0.00000000,0.00000000,0
2.3700,0.01038252,-0.14982167,9.81808673,0.00147467,-0.00071089,0.01631029,1.03480164,-0.04098676,0.33342026,,,0.00000000,0.00000000,0.00000000,0
2.3800,0.06972438,-0.00504002,9.99695196,-0.00283078,-0.00013556,0.01076080,1.02845158,-0.03592845,0.36149697,,,0.00000000,0.00000000,0.00000000,0
2.3900,0.02402762,-0.15266653,9.80951225,0.00316188,-0.00017643,0.01304897,1.03670819,-0.02402304,0.37618719,,,0.00000000,0.00000000,0.00000000,0
2.4000,-0.03355074,-0.12742601,9.90482938,-0.00127698,-0.00020460,0.01267234,1.05562208,-0.03457523,0.33014897,,,0.00000000,0.00000000,0.00000000,0
2.4100,-0.01161859,-0.18818983,9.92575382,0.00539607,0.00176625,0.01390709,1.03884828,-0.02710585,0.37160323,,,0.00000000,0.00000000,0.00000000,0
2.4200,0.03108587,-0.00145302,9.87845772,-0.00281514,-0.00138235,0.00389071,1.04373438,0.01343691,0.35174591,,,0.00000000,0.00000000,0.00000000,0
2.4300,0.09053238,-0.02695850,9.96889620,-0.00543574,0.00162179,0.01595686,1.05149118,-0.04214482,0.34148101,,,0.00000000,0.00000000,0.00000000,0
2.4400,0.07399862,0.00136541,9.90278935,-0.00178072,0.00053538,0.02114460,1.03706850,-0.02542471,0.36685871,,,0.00000000,0.00000000,0.00000000,0
2.4500,-0.07653102,-0.04317086,9.84925468,0.00106172,-0.00459298,0.01296417,0.99421147,-0.01163424,0.37894401,,,0.00000000,0.00000000,0.00000000,0
2.4600,0.05660374,-0.13869553,10.00072918,0.00566918,-0.00257223,0.01518380,1.06177074,-0.01579265,0.35457057,,,0.00000000,0.00000000,0.00000000,0
2.4700,0.04835109,-0.12690540,9.73328904,0.00400544,-0.00285119,0.01615124,1.04980135,-0.00923277,0.34180152,,,0.00000000,0.00000000,0.00000000,0
2.4800,0.01749702,-0.03717403,9.81253663,-0.00004466,0.00382366,0.01120120,1.05144955,-0.02103829,0.35427803,,,0.00000000,0.00000000,0.00000000,0
2.4900,0.04736911,-0.08129406,9.91413266,0.00693749,-0.00031003,0.01675316,1.06827514,-0.03911119,0.34160396,,,0.00000000,0.00000000,0.00000000,0
2.5000,-0.01796335,-0.03308002,9.94830713,-0.00377604,0.00082504,0.01192136,1.04061630,-0.03814235,0.37638424,,,0.00000000,0.00000000,0.00000000,0
2.5100,0.24573351,-0.11061146,9.83283938,0.00216493,0.00082328,0.01337322,1.01631673,-0.04842729,0.36090642,,,0.00000000,0.00000000,0.00000000,0
2.5200,-0.02718686,0.03274627,9.77815206,-0.00129729,-0.00488215,0.01606432,1.05242160,-0.04659899,0.37570698,,,0.00000000,0.00000000,0.00000000,0
2.5300,0.00125144,-0.03236810,9.79170572,-0.00272050,0.00160723,0.01486615,1.01238001,-0.01339292,0.34278765,,,0.00000000,0.00000000,0.00000000,0
2.5400,-0.03658600,-0.06804983,9.70196478,0.00760561,-0.00442755,0.01545567,1.03400231,-0.00190669,0.35513983,,,0.00000000,0.00000000,0.00000000,0
2.5500,-0.07563826,-0.06304273,9.88185845,0.01053105,0.00103254,0.01150274,1.03138146,-0.02535397,0.38435603,,,0.00000000,0.00000000,0.00000000,0
2.5600,0.02513920,-0.17191750,9.83289710,0.00260609,0.00409135,0.01791443,1.04202678,-0.04057239,0.35910113,,,0.00000000,0.00000000,0.00000000,0
2.5700,0.10387501,0.01446924,9.86370017,-0.00756700,0.00104013,0.01086137,1.02237960,-0.03935432,0.34741789,,,0.00000000,0.00000000,0.00000000,0
2.5800,-0.03098959,0.02049731,9.82368568,0.00766515,0.00047061,0.01837326,1.05062212,-0.03640308,0.36311504,,,0.00000000,0.00000000,0.00000000,0
2.5900,-0.05353987,-0.09417490,9.98586762,0.00284124,0.00211243,0.01320851,1.05815226,-0.00545620,0.33054442,,,0.00000000,0.00000000,0.00000000,0
2.6000,0.05761440,0.06273976,9.83165309,0.00659661,-0.00076645,0.01046408,1.04005555,-0.04641195,0.36545251,,,0.00000000,0.00000000,0.00000000,0
2.6100,0.11505195,-0.07812032,9.85740581,0.00571532,0.00624321,0.01474003,1.04459130,-0.02931829,0.34787235,,,0.00000000,0.00000000,0.00000000,0
2.6200,0.23890802,0.03137189,9.82990637,0.00235912,-0.00332816,0.01096753,1.02635030,-0.05453867,0.37028580,,,0.00000000,0.00000000,0.00000000,0
2.6300,0.03321448,-0.00390213,9.96683661,0.00753966,0.00341429,0.01301773,1.03781400,-0.02872295,0.36059593,,,0.00000000,0.00000000,0.00000000,0
2.6400,0.00086935,-0.16930553,9.84762865,-0.00286799,0.00422726,0.01449657,1.05264854,-0.00096137,0.35311789,,,0.00000000,0.00000000,0.00000000,0
2.6500,0.04123084,-0.02123696,9.97533521,-0.00569390,-0.00623313,0.01813304,1.05058109,-0.05369507,0.34990006,,,0.00000000,0.00000000,0.00000000,0
2.6600,0.06533497,0.03503336,9.78191090,0.00052388,0.00199536,0.01818670,1.03017029,-0.03861309,0.37310724,,,0.00000000,0.00000000,0.00000000,0
2.6700,0.10943212,0.13769759,9.93183274,-0.00005395,-0.00024231,0.01695110,1.04239813,-0.02823925,0.35694945,,,0.00000000,0.00000000,0.00000000,0
2.6800,0.06028446,-0.01768094,10.01297138,0.00251948,0.00217116,0.01398056,1.03743057,-0.03251514,0.34611336,,,0.00000000,0.00000000,0.00000000,0
2.6900,-0.03417452,-0.03888819,9.90681661,0.00123429,-0.00157986,0.00914478,1.03275886,-0.03563414,0.35304821,,,0.00000000,0.00000000,0.00000000,0
2.7000,0.09952009,-0.06498623,9.89458571,-0.00179050,0.00671635,0.01421133,1.01277850,-0.02823301,0.35520689,,,0.00000000,0.00000000,0.00000000,0
2.7100,0.01776628,-0.02036231,9.85943268,0.00129774,-0.00280446,0.01383312,1.04697275,-0.04590731,0.34181007,,,0.00000000,0.00000000,0.00000000,0
2.7200,-0.05132749,-0.03168909,9.94017212,0.00086480,0.00028696,0.01457842,1.05268686,-0.04000721,0.36287777,,,0.00000000,0.00000000,0.00000000,0
2.7300,-0.03736146,-0.04928734,9.92318241,-0.00439534,0.00037165,0.01302802,1.03067162,-0.04716332,0.33399555,,,0.00000000,0.00000000,0.00000000,0
2.7400,-0.04558921,-0.01538893,9.78518961,0.00239235,0.00516229,0.01304170,1.03162895,-0.03631251,0.33745828,,,0.00000000,0.00000000,0.00000000,0
2.7500,0.13077044,0.15502571,10.03178042,-0.00770631,-0.00035400,0.01822274,1.06185981,-0.02896901,0.34249682,,,0.00000000,0.00000000,0.00000000,0
2.7600,0.02246555,0.02921593,9.87967982,-0.00489250,0.00430649,0.00988107,1.06295260,-0.01699809,0.34443663,,,0.00000000,0.00000000,0.00000000,0
2.7700,0.04816847,0.09382056,9.76446563,-0.00234429,-0.00230787,0.01512007,1.02545766,-0.03203885,0.36654862,,,0.00000000,0.00000000,0.00000000,0
2.7800,0.12442357,-0.03391808,9.98268325,-0.00675855,0.00212611,0.01999987,1.01986411,-0.01214648,0.35002342,,,0.00000000,0.00000000,0.00000000,0
2.7900,0.05497867,-0.08381376,9.89217123,0.00753332,-0.00399421,0.01207838,1.05316273,-0.03132590,0.36299630,,,0.00000000,0.00000000,0.00000000,0
2.8000,0.09887737,-0.02713891,9.90904306,-0.00249029,0.00427772,0.01123490,1.05030219,-0.01002725,0.34520765,,,0.00000000,0.00000000,0.00000000,0
2.8100,-0.00173401,-0.20071071,9.94200189,0.00314078,-0.00152963,0.01420950,1.06892985,-0.04811876,0.36045967,,,0.00000000,0.00000000,0.00000000,0
2.8200,0.09593278,-0.01814573,9.87547284,-0.00037611,0.00211731,0.01374540,1.05088268,-0.02878750,0.36900679,,,0.00000000,0.00000000,0.00000000,0
2.8300,0.12290366,-0.06656854,9.81347727,0.00650576,0.00349321,0.01610828,1.01685286,-0.02980966,0.37067126,,,0.00000000,0.00000000,0.00000000,0
2.8400,0.02491601,0.06512778,9.75903097,-0.00137126,-0.00770884,0.02037021,1.04104957,-0.04550978,0.35824017,,,0.00000000,0.00000000,0.00000000,0
2.8500,0.13534640,-0.08114023,9.78194052,0.00270779,-0.00510053,0.01458960,1.04370357,-0.04377201,0.37553382,,,0.00000000,0.00000000,0.00000000,0
2.8600,0.14080495,-0.03775121,9.76598125,0.00079933,-0.00092327,0.01726216,1.03295614,-0.04431722,0.35751432,,,0.00000000,0.00000000,0.00000000,0
2.8700,0.01130136,0.04448419,9.96536594,0.00151016,0.00234687,0.01281755,1.03125872,-0.03190896,0.35941429,,,0.00000000,0.00000000,0.00000000,0
2.8800,0.00583211,0.00250566,9.92712677,-0.00177017,0.00022148,0.01317621,1.03477789,-0.02029752,0.36031351,,,0.00000000,0.00000000,0.00000000,0
2.8900,-0.01157012,-0.00159711,9.86744977,0.00125661,0.00435322,0.01622800,1.05893737,-0.04382136,0.35693961,,,0.00000000,0.00000000,0.00000000,0
2.9000,-0.00288195,-0.06937183,9.87536276,0.00008513,-0.00260384,0.01246466,1.04477363,-0.02479044,0.32487423,,,0.00000000,0.00000000,0.00000000,0
2.9100,0.04238828,-0.07523920,9.83592439,-0.00532814,0.00071689,0.01976833,1.02521326,-0.02418508,0.36446556,,,0.00000000,0.00000000,0.00000000,0
2.9200,0.12906698,-0.01289383,9.94080755,-0.00922012,-0.00844280,0.01349929,1.04147180,-0.02628931,0.37411597,,,0.00000000,0.00000000,0.00000000,0
2.9300,0.13614578,0.01710738,10.05167091,-0.00618484,0.00155857,0.01444801,1.03579569,-0.04028040,0.37814301,,,0.00000000,0.00000000,0.00000000,0
2.9400,-0.02602432,0.03467277,9.84454848,0.00336190,0.00336500,0.01101061,1.05008064,-0.03140593,0.34546612,,,0.00000000,0.00000000,0.00000000,0
2.9500,0.18846266,0.10603521,9.71366311,0.00353919,0.00044748,0.01337906,1.06478614,-0.03303278,0.34403790,,,0.00000000,0.00000000,0.00000000,0
2.9600,-0.03750930,0.02314503,9.93318938,0.00753163,0.00463581,0.01116548,1.05981920,-0.05070934,0.35382873,,,0.00000000,0.00000000,0.00000000,0
2.9700,0.09892514,-0.03566923,9.90640967,-0.00295357,-0.00069783,0.01317085,1.05032556,-0.03315323,0.34841846,,,0.00000000,0.00000000,0.00000000,0
2.9800,0.09224171,-0.03622970,9.95218416,0.00054368,-0.00215383,0.00813660,1.04750952,-0.04690411,0.35287565,,,0.00000000,0.00000000,0.00000000,0
2.9900,-0.14075978,0.02070348,9.78727579,0.00041345,0.00170829,0.01503554,1.05169688,-0.04513705,0.37653660,,,0.00000000,0.00000000,0.00000000,0
3.0000,0.11669422,-0.04829475,9.79889702,0.00272346,-0.00451166,0.02190353,1.03795410,-0.03006436,0.34902849,,,0.00000000,0.00000000,0.00000000,0
3.0100,0.06991217,-0.10290668,9.79697857,0.00165645,0.00207023,0.00773891,1.04957732,-0.03596226,0.35940533,,,0.00000000,0.00000000,0.00000000,0
3.0200,-0.08538355,-0.03213662,9.90974588,0.00460081,0.00322190,0.02187426,1.05963827,-0.01045292,0.33361812,,,0.00000000,0.00000000,0.00000000,0
3.0300,0.12184208,-0.04133823,9.95382842,-0.00044222,-0.00628705,0.01460091,1.06095620,-0.03621471,0.36051745,,,0.00000000,0.00000000,0.00000000,0
3.0400,0.04143688,-0.03746308,9.91588504,-0.00096053,-0.00096378,0.01854062,1.04257674,-0.02482151,0.34716833,,,0.00000000,0.00000000,0.00000000,0
3.0500,0.12467142,-0.05731476,9.85049907,-0.00714017,0.00051735,0.01112602,1.04967793,-0.01399737,0.34751114,,,0.00000000,0.00000000,0.00000000,0
3.0600,0.02713349,-0.02337847,9.79796734,0.00413881,0.00525523,0.02301683,1.04079325,-0.01695891,0.37190465,,,0.00000000,0.00000000,0.00000000,0
3.0700,0.12224048,-0.06203277,9.90699548,-0.00354086,0.00277814,0.01085282,1.04596098,-0.02499378,0.36316969,,,0.00000000,0.00000000,0.00000000,0
3.0800,-0.02603781,-0.00129568,9.90132744,0.00715034,0.00122177,0.01476943,1.03604598,-0.02402992,0.35193809,,,0.00000000,0.00000000,0.00000000,0
3.0900,0.00634549,0.13167115,9.89968320,0.00207545,-0.00077181,0.02116748,1.03594293,-0.06368928,0.32949237,,,0.00000000,0.00000000,0.00000000,0
3.1000,0.18215431,0.04673111,9.81701802,-0.00237919,0.00017241,0.01006429,1.04645170,-0.01805528,0.36256813,,,0.00000000,0.00000000,0.00000000,0
3.1100,0.00942505,0.00488817,9.87489380,0.00134907,-0.00533908,0.00591121,1.04248301,-0.03350888,0.36426902,,,0.00000000,0.00000000,0.00000000,0
3.1200,0.04395689,-0.05289640,9.72532189,0.00216716,0.00123696,0.01478251,1.03501878,-0.02915125,0.37802920,,,0.00000000,0.00000000,0.00000000,0
3.1300,0.02196539,-0.20744972,9.89974557,-0.00057307,-0.00385927,0.01205097,1.02043221,-0.03793879,0.35228123,,,0.00000000,0.00000000,0.00000000,0
3.1400,-0.01808462,-0.08723334,9.85245570,-0.00591251,0.00718997,0.01124632,1.01258068,-0.04667205,0.37150876,,,0.00000000,0.00000000,0.00000000,0
3.1500,0.06181379,-0.14456049,9.73011190,0.00202527,-0.00070772,0.01147231,1.04843511,-0.03120897,0.37511073,,,0.00000000,0.00000000,0.00000000,0
3.1600,-0.04528527,-0.19333820,9.79265203,0.00408772,0.00360773,0.00930715,1.02626798,-0.00094901,0.35483632,,,0.00000000,0.00000000,0.00000000,0
3.1700,0.16727064,-0.11452687,9.92211241,-0.00328813,0.00863766,0.02056844,1.03190052,-0.01316936,0.36350619,,,0.00000000,0.00000000,0.00000000,0
3.1800,-0.06973078,-0.00607039,9.84442130,0.00091487,-0.00083716,0.01985526,1.04374057,-0.03098831,0.32901969,,,0.00000000,0.00000000,0.00000000,0
3.1900,0.03521498,0.01550221,10.01049921,0.00068097,0.00513730,0.00969665,1.01004091,-0.02929073,0.36990311,,,0.00000000,0.00000000,0.00000000,0
3.2000,0.05557651,-0.02005128,9.79213058,0.00043765,-0.00278094,0.01464243,1.02897860,-0.02798353,0.33256846,,,0.00000000,0.00000000,0.00000000,0
3.2100,0.08666717,-0.04968579,9.93656056,0.00756739,-0.00000944,0.01325016,1.01857865,-0.03020344,0.36592740,,,0.00000000,0.00000000,0.00000000,0
3.2200,0.03650348,0.10926846,9.71136668,0.00598175,-0.00083975,0.01939605,1.05157049,-0.01163953,0.34385444,,,0.00000000,0.00000000,0.00000000,0
3.2300,0.01627205,0.04051853,9.84194462,0.00451930,0.00238521,0.01175951,1.03813647,-0.01783344,0.34046942,,,0.00000000,0.00000000,0.00000000,0
3.2400,-0.02337385,-0.05127045,9.75960570,0.00620335,0.00130607,0.02144685,1.03604070,-0.02947704,0.35526580,,,0.00000000,0.00000000,0.00000000,0
3.2500,0.04951630,0.16523695,9.96160252,0.00174762,0.00012542,0.01507100,1.05350590,-0.02319459,0.34901264,,,0.00000000,0.00000000,0.00000000,0
3.2600,-0.04872073,-0.09986729,9.83762178,0.00029729,-0.00046124,0.01195033,1.00620445,-0.01779095,0.37020886,,,0.00000000,0.00000000,0.00000000,0
3.2700,0.12035329,-0.09571896,9.81478149,0.00134473,-0.00526676,0.01470276,1.04803428,-0.02424627,0.36204951,,,0.00000000,0.00000000,0.00000000,0
3.2800,0.11077995,0.03917221,9.84009483,-0.00094489,0.00598440,0.01275042,1.05836926,-0.03706554,0.35448490,,,0.00000000,0.00000000,0.00000000,0
3.2900,-0.04942107,-0.15397959,9.81408079,-0.00410311,-0.00349515,0.02395900,1.02575513,-0.03278222,0.34330506,,,0.00000000,0.00000000,0.00000000,0
3.3000,-0.13844231,0.02998559,9.81959754,-0.00225903,-0.00239301,0.01563649,1.02832275,-0.05890092,0.35397996,,,0.00000000,0.00000000,0.00000000,0
3.3100,0.07850349,0.11946599,9.96383966,0.00472528,-0.00483451,0.01314795,1.05533431,-0.07401368,0.37415359,,,0.00000000,0.00000000,0.00000000,0
3.3200,-0.05209079,0.03953992,9.96262856,-0.00699950,0.00479106,0.01542609,1.03978574,-0.03973851,0.35981024,,,0.00000000,0.00000000,0.00000000,0
3.3300,-0.01970852,-0.10626375,9.86122465,-0.00576698,-0.00615310,0.02087503,1.03659816,-0.03087694,0.37623559,,,0.00000000,0.00000000,0.00000000,0
3.3400,-0.08811387,0.08765880,9.67757090,0.00474405,0.00443246,0.01124729,1.04274573,-0.02437293,0.35129091,,,0.00000000,0.00000000,0.00000000,0
3.3500,-0.04854459,-0.05156521,9.85183303,0.00310234,0.00168350,0.00839059,1.03763859,-0.04322901,0.35340005,,,0.00000000,0.00000000,0.00000000,0
3.3600,0.05328993,-0.00828411,9.85291104,0.00800996,0.00037081,0.02023168,1.02869181,-0.01294136,0.35176688,,,0.00000000,0.00000000,0.00000000,0
3.3700,0.13095091,-0.20115009,9.86998684,-0.00149575,-0.00579203,0.01747110,1.05104872,-0.01075288,0.37021434,,,0.00000000,0.00000000,0.00000000,0
3.3800,-0.01716675,-0.01939893,9.88766079,0.00476331,-0.00468418,0.01326291,1.03008057,-0.00516181,0.32715258,,,0.00000000,0.00000000,0.00000000,0
3.3900,-0.03294631,-0.08127592,9.93340694,0.00875283,0.00189209,0.01472663,1.06119734,-0.06713537,0.34176435,,,0.00000000,0.00000000,0.00000000,0
3.4000,0.06792450,-0.08441987,10.03319128,-0.00303529,-0.00096052,0.01942284,1.03901739,-0.04040685,0.32391169,,,0.00000000,0.00000000,0.00000000,0
3.4100,0.22473421,-0.14699700,9.89414360,-0.00462314,-0.00066040,0.00425717,1.01801198,-0.02618761,0.32979502,,,0.00000000,0.00000000,0.00000000,0
3.4200,0.24071955,0.03271189,9.88768481,0.00280227,-0.00442175,0.02008179,1.04943335,-0.01297200,0.37496982,,,0.00000000,0.00000000,0.00000000,0
3.4300,0.02335545,-0.07329554,9.85299882,0.00462679,0.00394341,0.01434250,1.04376263,-0.03063253,0.34914465,,,0.00000000,0.00000000,0.00000000,0
3.4400,-0.00405835,0.02959267,9.83814771,0.00734057,-0.00099294,0.01772106,1.08066171,-0.01214857,0.36441062,,,0.00000000,0.00000000,0.00000000,0
3.4500,0.00470788,-0.12617285,9.86603281,0.00466710,-0.00320918,0.01483232,1.04502194,-0.01382347,0.32677541,,,0.00000000,0.00000000,0.00000000,0
3.4600,-0.03152973,-0.04446001,9.95334524,0.00786822,0.00438865,0.02729762,1.05276323,-0.03841966,0.32089375,,,0.00000000,0.00000000,0.00000000,0
3.4700,0.06927399,0.01037802,9.89848727,0.00119749,0.00117558,0.01257824,1.05635194,-0.04122532,0.36151147,,,0.00000000,0.00000000,0.00000000,0
3.4800,0.04473406,-0.04018626,9.84537550,-0.00042027,-0.00226065,0.01940061,1.02913709,-0.03586181,0.37885029,,,0.00000000,0.00000000,0.00000000,0
3.4900,0.10072936,-0.11673918,9.97725781,0.00224925,-0.00345197,0.00469206,1.04496209,-0.02413198,0.33185990,,,0.00000000,0.00000000,0.00000000,0
3.5000,0.04272625,-0.08989603,9.83086831,0.00082104,0.00343507,0.01518802,1.05341085,-0.03947659,0.36200040,,,0.00000000,0.00000000,0.00000000,0
3.5100,-0.01415923,-0.01718348,9.81257256,0.00537314,0.00289769,0.01816184,1.02502117,-0.02451272,0.36317905,,,0.00000000,0.00000000,0.00000000,0
3.5200,0.13137050,-0.09253112,9.68819825,-0.00033977,0.00266122,0.00889089,1.01846666,-0.02523528,0.34189868,,,0.00000000,0.00000000,0.00000000,0
3.5300,-0.01847988,-0.19068169,9.86681049,-0.00060538,0.00338176,0.00696085,1.05851665,-0.02447054,0.35586568,,,0.00000000,0.00000000,0.00000000,0
3.5400,0.12473264,0.02182078,9.76299284,0.00216749,-0.00385232,0.01541233,1.08510242,-0.01755477,0.34947910,,,0.00000000,0.00000000,0.00000000,0
3.5500,-0.02098042,0.11229068,9.89548091,-0.00193109,0.00196577,0.01905634,1.05304475,-0.02567582,0.37511722,,,0.00000000,0.00000000,0.00000000,0
3.5600,0.04032950,0.05448500,10.06621929,0.00411853,-0.00115281,0.01974241,1.02533811,-0.00083378,0.34763278,,,0.00000000,0.00000000,0.00000000,0
3.5700,0.14372586,-0.01884678,9.89837505,-0.00722684,-0.00084845,0.01230125,1.03455980,-0.04068805,0.35070491,,,0.00000000,0.00000000,0.00000000,0
3.5800,0.08936638,-0.07901588,9.78530244,0.00252331,0.00615906,0.01640471,1.06848460,-0.02712390,0.33932389,,,0.00000000,0.00000000,0.00000000,0
3.5900,0.04419593,-0.10577690,9.86508301,-0.00479070,0.00161865,0.00940258,1.03791817,-0.02615720,0.36935737,,,0.00000000,0.00000000,0.00000000,0
3.6000,0.04768984,0.15728299,9.80191600,0.00160512,0.00167917,0.02197526,1.03541842,-0.02695358,0.39871694,,,0.00000000,0.00000000,0.00000000,0
3.6100,0.03025689,-0.04314423,9.90498484,0.00268639,0.00697261,0.01274366,1.03821576,-0.02808909,0.33749916,,,0.00000000,0.00000000,0.00000000,0
3.6200,0.12373795,-0.06923868,9.80429184,-0.00459896,-0.00151685,0.02010398,1.05431222,-0.03667328,0.38255269,,,0.00000000,0.00000000,0.00000000,0
3.6300,-0.09125685,-0.10409636,9.91291527,-0.00287781,-0.00066855,0.01394843,1.05811858,-0.01782450,0.34775700,,,0.00000000,0.00000000,0.00000000,0
3.6400,0.04365176,-0.11123472,9.84017860,-0.00243533,0.00316436,0.01370729,1.03519329,-0.03544931,0.35648293,,,0.00000000,0.00000000,0.00000000,0
3.6500,0.04251784,0.01029431,9.82252845,-0.00400860,-0.00249522,0.02148276,1.03504098,-0.03776306,0.35669108,,,0.00000000,0.00000000,0.00000000,0
3.6600,0.01996480,-0.17547478,9.77788914,0.00886300,0.00141672,0.01154869,1.03984709,-0.03538087,0.36872623,,,0.00000000,0.00000000,0.00000000,0
3.6700,0.16941725,-0.20505125,9.84297580,0.00236536,-0.00825944,0.02017561,1.05568642,-0.03803221,0.38699724,,,0.00000000,0.00000000,0.00000000,0
3.6800,0.05753586,-0.05994794,9.80534740,-0.00304761,-0.00506684,0.01359680,1.04586827,-0.01160140,0.38307037,,,0.00000000,0.00000000,0.00000000,0
3.6900,0.03511372,-0.03039723,9.86343061,0.00756823,-0.00597209,0.01151347,1.01920833,-0.02229341,0.36882535,,,0.00000000,0.00000000,0.00000000,0
3.7000,-0.11021697,-0.04179229,9.80159098,0.00503547,0.00305003,0.01167555,1.05806121,-0.01802132,0.37021514,,,0.00000000,0.00000000,0.00000000,0
3.7100,-0.00381887,-0.01184202,9.92125830,-0.00007239,-0.00170258,0.01951326,1.01793779,-0.04390354,0.36376646,,,0.00000000,0.00000000,0.00000000,0
3.7200,0.11174219,-0.06971304,9.94392022,0.00339929,-0.00194692,0.01469511,1.01003053,-0.03787542,0.35248974,,,0.00000000,0.00000000,0.00000000,0
3.7300,0.13389820,0.06093103,9.98118144,0.00624778,-0.00704905,0.01360002,1.04581744,-0.01636008,0.35883942,,,0.00000000,0.00000000,0.00000000,0
3.7400,0.02834540,-0.04393055,9.93600406,0.00226177,-0.00464821,0.00899424,1.02794222,-0.04396566,0.36135350,,,0.00000000,0.00000000,0.00000000,0
3.7500,-0.06932195,-0.01324568,9.82755528,-0.00492394,0.00099493,0.01969962,1.04892794,-0.02414417,0.35735255,,,0.00000000,0.00000000,0.00000000,0
3.7600,0.01049688,-0.16932116,9.79875646,0.00353714,0.00448016,0.01919779,1.04190022,-0.05039859,0.35486587,,,0.00000000,0.00000000,0.00000000,0
3.7700,0.03836049,0.04107625,9.94920213,-0.00116340,0.00141501,0.01629960,1.05155896,-0.04646788,0.36163253,,,0.00000000,0.00000000,0.00000000,0
3.7800,0.03357388,-0.04514307,9.80354567,-0.00453885,0.00468224,0.01811451,1.05059271,0.00492497,0.35432558,,,0.00000000,0.00000000,0.00000000,0
3.7900,0.07218852,-0.04980624,9.91847076,0.00354199,-0.00512440,0.00203431,1.03658706,-0.04765189,0.33906652,,,0.00000000,0.00000000,0.00000000,0
3.8000,0.18013494,-0.03259000,9.75021164,0.00885295,0.00284466,0.01288351,1.01622968,-0.05629041,0.36567887,,,0.00000000,0.00000000,0.00000000,0
3.8100,-0.02886804,-0.14665180,9.77423122,0.00050953,0.00012236,0.01565057,1.04014787,-0.02518302,0.33165871,,,0.00000000,0.00000000,0.00000000,0
3.8200,0.14442166,-0.01186723,9.74838605,-0.00058307,0.00235761,0.01542551,1.01019800,-0.05605021,0.37929073,,,0.00000000,0.00000000,0.00000000,0
3.8300,0.09229057,0.07082999,9.84121004,0.00128400,-0.00242064,0.01273327,1.05700998,-0.04964339,0.35678301,,,0.00000000,0.00000000,0.00000000,0
3.8400,-0.01407927,-0.05699022,9.89276852,0.00437038,-0.00162460,0.01595136,1.04280090,-0.04428986,0.34574111,,,0.00000000,0.00000000,0.00000000,0
3.8500,0.09119761,0.06457735,9.96699826,-0.00322506,-0.00114788,0.01208627,1.05444209,-0.01908696,0.36869439,,,0.00000000,0.00000000,0.00000000,0
3.8600,0.13483231,0.07895371,9.92291102,0.00538140,-0.00274050,0.01238493,1.04518445,-0.02787069,0.36282090,,,0.00000000,0.00000000,0.00000000,0
3.8700,-0.08247253,-0.04047714,9.89511364,-0.00556334,-0.00028894,0.01002350,1.03808833,-0.00446503,0.35877638,,,0.00000000,0.00000000,0.00000000,0
3.8800,0.00934990,0.04290087,9.84118288,0.00315434,-0.00372908,0.01555118,1.04845134,-0.03081094,0.34554463,,,0.00000000,0.00000000,0.00000000,0
3.8900,-0.03405976,0.08554392,9.92328034,0.00388862,-0.00474942,0.01211614,1.03973599,-0.03439019,0.34360290,,,0.00000000,0.00000000,0.00000000,0
3.9000,0.05754030,0.04413673,9.95500274,-0.00176053,0.00029805,0.01299005,1.05256002,0.00014278,0.35978295,,,0.00000000,0.00000000,0.00000000,0
3.9100,0.06728286,-0.22661291,9.81595284,0.00660449,0.00373469,0.02053909,1.03898180,-0.04011338,0.33376298,,,0.00000000,0.00000000,0.00000000,0
3.9200,0.00347367,-0.10873607,9.88589419,0.00163251,0.00055418,0.01482792,1.04960815,-0.02092334,0.34376785,,,0.00000000,0.00000000,0.00000000,0
3.9300,0.13537617,-0.06879245,9.77921339,0.00574063,-0.00661007,0.01485728,1.04179428,-0.04204917,0.37664207,,,0.00000000,0.00000000,0.00000000,0
3.9400,0.20224278,-0.06611501,9.77136281,0.00084639,-0.00270069,0.00886015,1.04233315,-0.02281852,0.38094309,,,0.00000000,0.00000000,0.00000000,0
3.9500,0.05901418,0.00405461,9.81359599,-0.00479113,0.00044507,0.01290616,1.00760682,-0.02326181,0.35962970,,,0.00000000,0.00000000,0.00000000,0
3.9600,0.10323629,-0.06898556,9.79616393,-0.00853387,-0.00545513,0.01892655,1.03637905,-0.02899093,0.37419176,,,0.00000000,0.00000000,0.00000000,0
3.9700,0.05428727,0.03166152,9.81929188,0.00351576,0.00415363,0.01720508,1.03097915,-0.03885087,0.38138414,,,0.00000000,0.00000000,0.00000000,0
3.9800,0.06645004,-0.03747933,10.09595469,0.00129868,-0.00857059,0.01521258,1.05592130,-0.02196587,0.36783002,,,0.00000000,0.00000000,0.00000000,0
3.9900,-0.01668477,0.08073373,9.86581230,-0.00175419,0.00506373,0.01429567,1.04221095,-0.03345899,0.35375471,,,0.00000000,0.00000000,0.00000000,0
4.0000,0.02985904,0.02773321,9.94151925,0.00937891,0.00319264,0.01526464,1.04559611,-0.03589923,0.33237047,,,0.00000000,0.00000000,0.00000000,0
4.0100,0.14136125,-0.00370786,9.82196829,-0.00385432,0.00064110,0.01659042,1.03856023,-0.02484302,0.35401926,,,0.00000000,0.00000000,0.00000000,0
4.0200,-0.00301169,0.01077226,9.91647199,0.00395046,-0.00451869,0.01369905,1.05094874,-0.02465421,0.37029479,,,0.00000000,0.00000000,0.00000000,0
4.0300,0.15184408,0.00347444,9.95481346,-0.00300824,-0.00158527,0.00505119,1.04290660,-0.03149275,0.36455555,,,0.00000000,0.00000000,0.00000000,0
4.0400,0.16134168,-0.01681596,9.75115531,-0.00197254,0.00120366,0.02286103,1.05412201,-0.03545484,0.34340108,,,0.00000000,0.00000000,0.00000000,0
4.0500,-0.05434217,-0.14502423,9.99732723,0.00596988,-0.00230243,0.01954345,1.06082311,-0.03666850,0.36157896,,,0.00000000,0.00000000,0.00000000,0
4.0600,-0.02779269,0.06854733,9.91685855,0.00897416,-0.00957336,0.01438172,1.03416273,-0.02567817,0.37662241,,,0.00000000,0.00000000,0.00000000,0
4.0700,0.17722153,0.05024751,9.86181038,-0.00053044,0.00505031,0.02064233,1.06592469,-0.04821666,0.33477039,,,0.00000000,0.00000000,0.00000000,0
4.0800,0.02399756,-0.02318658,9.88402088,0.00184100,-0.00265988,0.00977588,0.99163700,-0.02020666,0.37905624,,,0.00000000,0.00000000,0.00000000,0
4.0900,-0.00245949,-0.03261026,9.99874560,-0.00462567,0.00369563,0.02015715,1.04489894,-0.03325691,0.36822144,,,0.00000000,0.00000000,0.00000000,0
4.1000,-0.09617106,-0.00932095,9.79744378,-0.00738074,0.00768698,0.01576347,1.02725465,-0.01924687,0.37592390,,,0.00000000,0.00000000,0.00000000,0
4.1100,0.05496297,0.03718846,9.86539119,-0.00334405,0.00925078,0.01855231,1.05928062,-0.01851927,0.34859790,,,0.00000000,0.00000000,0.00000000,0
4.1200,0.10183895,-0.15718715,9.95855913,0.00488304,-0.00142512,0.01361680,1.03620238,-0.04242819,0.38342582,,,0.00000000,0.00000000,0.00000000,0
4.1300,-0.00825034,0.01979265,9.88459585,0.00235425,-0.00645591,0.01560243,1.05937952,-0.02986500,0.35499491,,,0.00000000,0.00000000,0.00000000,0
4.1400,-0.16684497,-0.09048513,9.88764067,-0.00046250,0.00552656,0.01733607,1.04451914,-0.03870908,0.36363524,,,0.00000000,0.00000000,0.00000000,0
4.1500,0.16431809,-0.00701854,9.89061567,-0.00233183,-0.00217395,0.01919178,1.04833227,-0.02263430,0.35673419,,,0.00000000,0.00000000,0.00000000,0
4.1600,-0.07301473,0.08449174,10.01456616,0.00295479,-0.00139139,0.01705536,1.00403523,-0.03189147,0.33522976,,,0.00000000,0.00000000,0.00000000,0
4.1700,0.04228600,-0.04758056,9.74047602,0.00277395,0.00200753,0.01677210,1.01617752,0.00394862,0.34860783,,,0.00000000,0.00000000,0.00000000,0
4.1800,0.11066568,0.18618235,9.92736905,0.00125473,-0.00333833,0.01262993,1.03807925,-0.03360122,0.34331102,,,0.00000000,0.00000000,0.00000000,0
4.1900,0.14109628,0.01336698,9.79119873,0.00359074,-0.00108339,0.02186520,1.06464934,-0.05636107,0.36285571,,,0.00000000,0.00000000,0.00000000,0
4.2000,0.14693381,-0.12876599,9.85314681,-0.00090648,-0.00614715,0.01583152,1.03212602,-0.01051942,0.36822714,,,0.00000000,0.00000000,0.00000000,0
4.2100,0.06230814,0.04063277,9.90327885,-0.01036072,-0.00137117,0.01409541,1.04192776,-0.05132597,0.36729525,,,0.00000000,0.00000000,0.00000000,0
4.2200,0.07094676,-0.09091905,9.76685029,0.00778833,0.00210089,0.01370124,1.05509687,-0.01957668,0.35139907,,,0.00000000,0.00000000,0.00000000,0
4.2300,0.04491845,-0.08681558,9.76537715,0.00093540,0.00325502,0.01018746,1.05000914,-0.04072602,0.35932318,,,0.00000000,0.00000000,0.00000000,0
4.2400,-0.06127572,-0.06921028,9.72179369,-0.00067244,-0.00118421,0.01204313,1.04609905,-0.03275784,0.34106712,,,0.00000000,0.00000000,0.00000000,0
4.2500,-0.06779750,-0.16081095,9.88458076,0.00056547,-0.00778954,0.00890535,1.03734686,-0.04231477,0.33800716,,,0.00000000,0.00000000,0.00000000,0
4.2600,0.07263874,0.13057128,9.75019762,0.01086774,-0.00365561,0.01581299,1.05609380,-0.03165970,0.34798447,,,0.00000000,0.00000000,0.00000000,0
4.2700,-0.01436776,0.04300891,9.85265810,0.00000658,0.00436832,0.01467189,1.03295886,-0.02303515,0.35080564,,,0.00000000,0.00000000,0.00000000,0
4.2800,0.01384016,0.10673358,9.84292751,-0.00084508,-0.00479355,0.01587233,1.03013899,-0.02544774,0.35765229,,,0.00000000,0.00000000,0.00000000,0
4.2900,-0.05249559,-0.13535520,9.89685555,-0.00854328,0.00495871,0.00999723,1.02723862,-0.04530127,0.37473831,,,0.00000000,0.00000000,0.00000000,0
4.3000,0.06441933,-0.13973619,9.79116830,0.00177990,0.00161336,0.01330878,1.03641943,-0.01168319,0.36434785,,,0.00000000,0.00000000,0.00000000,0
4.3100,0.08277701,0.01618134,9.81854223,0.00045169,-0.00013517,0.01243072,1.03946970,-0.03302226,0.37956841,,,0.00000000,0.00000000,0.00000000,0
4.3200,0.08977730,0.01574837,9.72735346,0.00045661,0.00046009,0.01896154,1.03101799,-0.03524631,0.34332733,,,0.00000000,0.00000000,0.00000000,0
4.3300,0.01503490,0.00321005,9.82415394,-0.00508482,-0.00324485,0.00903122,1.03820850,-0.04335364,0.35721721,,,0.00000000,0.00000000,0.00000000,0
4.3400,-0.13111455,-0.05264118,9.93016745,0.00594193,0.00630102,0.00891962,1.02194572,-0.02181853,0.36047458,,,0.00000000,0.00000000,0.00000000,0
4.3500,0.16643245,-0.20526261,10.07906571,0.00414654,0.00075045,0.02013229,1.04361659,-0.03841669,0.37441258,,,0.00000000,0.00000000,0.00000000,0
4.3600,-0.05017091,0.04655767,9.96873585,0.00076962,0.00186151,0.01643987,1.07011474,-0.03146725,0.34407271,,,0.00000000,0.00000000,0.00000000,0
4.3700,0.11864138,-0.01803052,9.77708659,0.00021554,0.00806917,0.00872306,1.04995608,-0.03266083,0.35757236,,,0.00000000,0.00000000,0.00000000,0
4.3800,0.09012470,-0.08721865,9.66818440,0.00024903,-0.00220405,0.02039194,1.04999228,-0.04962385,0.36616014,,,0.00000000,0.00000000,0.00000000,0
4.3900,0.26631189,0.02664816,10.01544617,0.00772987,-0.00105327,0.02096509,1.02498773,-0.04800862,0.34971058,,,0.00000000,0.00000000,0.00000000,0
4.4000,-0.03292982,0.08740023,9.99718953,0.00277416,0.00277666,0.01956252,1.06199257,-0.03891380,0.36228678,,,0.00000000,0.00000000,0.00000000,0
4.4100,0.16436396,-0.03169651,9.77380304,-0.00076981,-0.00004805,0.00674403,1.02665602,-0.02035315,0.36012985,,,0.00000000,0.00000000,0.00000000,0
4.4200,0.02581498,-0.20622153,9.73383901,0.00301815,0.00204521,0.01547603,1.05747427,-0.02694950,0.35549597,,,0.00000000,0.00000000,0.00000000,0
4.4300,0.04735510,-0.10931188,9.85684425,-0.00416438,-0.00272363,0.01153501,1.01274884,-0.02493975,0.36707502,,,0.00000000,0.00000000,0.00000000,0
4.4400,0.03128002,0.12445816,9.97381013,0.00220304,-0.00385415,0.01393018,1.04333509,-0.02692182,0.36369750,,,0.00000000,0.00000000,0.00000000,0
4.4500,0.03641019,0.06671196,9.80762295,0.00178335,-0.00880978,0.00867319,1.05323072,-0.04287447,0.35429938,,,0.00000000,0.00000000,0.00000000,0
4.4600,0.01304824,0.04281794,9.77066715,0.00086992,-0.00206880,0.02193031,1.04673533,-0.02585158,0.34122567,,,0.00000000,0.00000000,0.00000000,0
4.4700,0.01768154,-0.13566767,9.87939779,-0.00736288,0.00099621,0.01222353,1.01105566,-0.02490686,0.36599677,,,0.00000000,0.00000000,0.00000000,0
4.4800,0.17060126,-0.09016775,9.88807036,-0.00403937,0.00582633,0.01610262,1.06511652,-0.02340517,0.34249996,,,0.00000000,0.00000000,0.00000000,0
4.4900,-0.03178575,-0.12196392,9.77113204,-0.00121597,-0.00381391,0.01821178,1.04691583,-0.03134761,0.34530910,,,0.00000000,0.00000000,0.00000000,0
4.5000,0.15638017,0.15899484,9.90864350,-0.00001095,0.00107653,0.01744680,1.01910901,-0.05660040,0.34501009,,,0.00000000,0.00000000,0.00000000,0
4.5100,-0.01730344,0.02639133,9.84325412,-0.00427811,0.00348955,0.01664004,1.03414027,-0.02876965,0.35557774,,,0.00000000,0.00000000,0.00000000,0
4.5200,0.10411187,-0.00672051,9.89237633,0.00627140,-0.00634095,0.01342959,1.04368810,-0.00143855,0.35436183,,,0.00000000,0.00000000,0.00000000,0
4.5300,0.08858208,-0.07635949,9.83765057,-0.00259765,0.00321281,0.01587582,1.06058098,-0.04121739,0.34458840,,,0.00000000,0.00000000,0.00000000,0
4.5400,-0.09769965,-0.06534956,9.75621338,0.00167454,0.00243649,0.01410944,1.03253129,-0.05628561,0.37978671,,,0.00000000,0.00000000,0.00000000,0
4.5500,0.02842550,-0.10661048,9.87809875,-0.00012777,-0.00778326,0.00589764,1.04403269,-0.01904290,0.38085038,,,0.00000000,0.00000000,0.00000000,0
4.5600,0.07625914,-0.14360981,9.80493767,-0.00941297,-0.00003149,0.01899244,1.04695832,-0.00560897,0.32032641,,,0.00000000,0.00000000,0.00000000,0
4.5700,-0.03546495,0.02971947,10.00650896,-0.00041553,0.00109986,0.01248047,1.05911602,-0.02525585,0.34708284,,,0.00000000,0.00000000,0.00000000,0
4.5800,0.10812293,-0.05795351,9.98720051,-0.00400475,-0.00610507,0.01290411,1.05632888,-0.02930233,0.34489187,,,0.00000000,0.00000000,0.00000000,0
4.5900,-0.08112862,0.08994864,9.81750286,0.00522624,0.00393914,0.01334058,1.01145981,-0.00333864,0.31652005,,,0.00000000,0.00000000,0.00000000,0
4.6000,-0.18242346,0.18206438,9.99624185,-0.00099220,0.00198891,0.00943195,1.04131478,-0.00606687,0.36495262,,,0.00000000,0.00000000,0.00000000,0
4.6100,-0.04255070,-0.01647931,9.85284004,-0.00236624,0.00087472,0.01014038,1.03095789,-0.03372797,0.34614430,,,0.00000000,0.00000000,0.00000000,0
4.6200,0.04817766,-0.14866292,9.81548048,-0.00710955,-0.00292014,0.00777405,1.04393965,-0.03089140,0.33607838,,,0.00000000,0.00000000,0.00000000,0
4.6300,0.07743690,-0.01218431,9.96593908,-0.00287142,0.00896211,0.01686294,1.01836636,-0.01282586,0.33624482,,,0.00000000,0.00000000,0.00000000,0
4.6400,0.04638002,0.15793773,9.81274148,0.00095594,-0.00387766,0.01971395,1.02332997,0.00476047,0.34268790,,,0.00000000,0.00000000,0.00000000,0
4.6500,0.06074659,-0.18330543,9.76974935,0.00277564,-0.00202103,0.01528669,1.02047795,-0.04437184,0.36649137,,,0.00000000,0.00000000,0.00000000,0
4.6600,0.14628208,-0.10542422,9.91245401,-0.00598201,-0.00019604,0.01040473,1.02893665,-0.03203668,0.32059996,,,0.00000000,0.00000000,0.00000000,0
4.6700,0.03505833,-0.11356392,9.84214006,0.00430669,0.00254797,0.02021427,1.03079067,-0.02950436,0.35568305,,,0.00000000,0.00000000,0.00000000,0
4.6800,-0.00113869,-0.06898927,9.93028866,-0.00233786,-0.00184299,0.01370869,1.06183277,-0.02251946,0.31180820,,,0.00000000,0.00000000,0.00000000,0
4.6900,0.09218756,-0.07619406,9.79743178,0.00200333,-0.00320106,0.00860844,1.01559727,-0.04341594,0.35041908,,,0.00000000,0.00000000,0.00000000,0
4.7000,0.06258699,-0.03800123,9.95226260,0.00358529,0.00306994,0.00745539,1.04057180,-0.02082862,0.32958674,,,0.00000000,0.00000000,0.00000000,0
4.7100,0.25242349,0.03743395,9.86722158,-0.00204137,0.00178013,0.01571141,1.00645517,-0.01842749,0.33973439,,,0.00000000,0.00000000,0.00000000,0
4.7200,0.02623648,-0.09853553,9.79746618,0.00072534,-0.00267812,0.02076093,1.00446600,-0.04460480,0.34799303,,,0.00000000,0.00000000,0.00000000,0
4.7300,-0.04027324,-0.06162681,9.83582852,-0.00503576,0.00106490,0.01344641,1.02150086,-0.04798162,0.36975547,,,0.00000000,0.00000000,0.00000000,0
4.7400,0.09949846,-0.06191992,9.85420402,0.00410277,0.00053593,0.01244290,1.02303928,-0.02586872,0.35778904,,,0.00000000,0.00000000,0.00000000,0
4.7500,-0.05746192,0.10156605,9.91055891,0.00969889,-0.00080475,0.01388678,1.03420092,0.00490674,0.33431637,,,0.00000000,0.00000000,0.00000000,0
4.7600,0.18310985,0.03375086,9.98917088,0.00201859,-0.00026507,0.01158404,1.07824240,-0.04477850,0.35053226,,,0.00000000,0.00000000,0.00000000,0
4.7700,0.02012100,0.02737286,10.08644051,-0.00241129,0.00241567,0.01279457,1.04411650,-0.01381120,0.36506686,,,0.00000000,0.00000000,0.00000000,0
4.7800,-0.05788276,0.06410152,10.00583554,-0.00890493,-0.00088852,0.01599038,1.03434285,-0.03563609,0.37223909,,,0.00000000,0.00000000,0.00000000,0
4.7900,0.07369021,0.03121699,9.97237076,0.00500331,-0.00231018,0.01208603,1.06262100,-0.03837092,0.37300691,,,0.00000000,0.00000000,0.00000000,0
4.8000,-0.01362361,0.00339294,9.79895961,0.00487886,-0.00244559,0.01870915,1.04815393,-0.02649560,0.33817220,,,0.00000000,0.00000000,0.00000000,0
4.8100,-0.01529976,-0.08052502,9.85829854,0.00205901,0.00316132,0.01106839,1.02080165,-0.02381322,0.31308041,,,0.00000000,0.00000000,0.00000000,0
4.8200,0.05198205,0.00704265,9.75392730,-0.00453752,0.00429560,0.01781317,1.03225886,-0.02387759,0.32972203,,,0.00000000,0.00000000,0.00000000,0
4.8300,0.20214203,0.06468232,9.92948502,-0.00207839,0.00843408,0.01636117,1.06419163,-0.00532430,0.33883859,,,0.00000000,0.00000000,0.00000000,0
4.8400,0.01067757,-0.03730453,9.91489331,-0.00432085,-0.00191579,0.01343228,1.03809704,-0.03211396,0.34662574,,,0.00000000,0.00000000,0.00000000,0
4.8500,0.07371520,-0.16768500,9.93074234,-0.00302962,-0.00788541,0.01378736,1.03246010,-0.02295117,0.37979096,,,0.00000000,0.00000000,0.00000000,0
4.8600,0.27905981,-0.18146320,9.95157421,0.00330964,0.00109724,0.01367624,1.04109629,-0.02856900,0.35685440,,,0.00000000,0.00000000,0.00000000,0
4.8700,0.07028016,-0.03915322,9.98256126,0.00096365,0.00273413,0.02169204,1.02951549,-0.02075947,0.34745179,,,0.00000000,0.00000000,0.00000000,0
4.8800,-0.05708771,-0.01663240,9.99015637,-0.00129873,-0.00224168,0.01173712,1.02511792,-0.02033397,0.32691690,,,0.00000000,0.00000000,0.00000000,0
4.8900,0.02383212,-0.06434104,9.87943818,0.00116552,-0.00531268,0.01972879,1.03231172,-0.03601852,0.35288237,,,0.00000000,0.00000000,0.00000000,0
4.9000,0.00345957,0.09713350,9.79545218,0.00741062,-0.00395160,0.01901308,1.01681280,-0.04430954,0.35271881,,,0.00000000,0.00000000,0.00000000,0
4.9100,0.11175450,-0.13293470,9.92500579,-0.00253749,0.00524887,0.01362224,1.04893474,-0.03180279,0.35180355,,,0.00000000,0.00000000,0.00000000,0
4.9200,0.03137604,-0.24241296,9.86950855,-0.00173975,-0.00480380,0.02144622,1.02738320,-0.02977534,0.31318892,,,0.00000000,0.00000000,0.00000000,0
4.9300,-0.04774270,-0.06654252,9.99652414,0.00350582,0.00285842,0.00545998,1.04958439,-0.01561729,0.35465854,,,0.00000000,0.00000000,0.00000000,0
4.9400,-0.05188649,-0.11719603,9.98847063,0.00653452,-0.00095557,0.01595644,1.02538909,-0.01011322,0.34478797,,,0.00000000,0.00000000,0.00000000,0
4.9500,0.04953575,0.09677847,9.89660859,0.00059298,-0.00251493,0.01549066,1.06005192,-0.03410548,0.34355466,,,0.00000000,0.00000000,0.00000000,0
4.9600,-0.03256517,-0.03545339,9.97113027,-0.00255890,-0.00031557,0.01505467,1.03674083,-0.04028035,0.35244596,,,0.00000000,0.00000000,0.00000000,0
4.9700,0.11740042,-0.02992708,9.87401149,-0.00702842,0.00221834,0.01832378,1.04738016,-0.03390794,0.34812228,,,0.00000000,0.00000000,0.00000000,0
4.9800,0.03074396,-0.07757337,10.02887038,0.00500599,0.00226907,0.01337377,1.03966116,-0.02419795,0.35500360,,,0.00000000,0.00000000,0.00000000,0
4.9900,0.04059145,-0.12303273,9.83076660,0.00080297,0.00541395,0.01422903,1.04807154,-0.02135167,0.35928509,,,0.00000000,0.00000000,0.00000000,0
5.0000,0.09974559,0.02276476,9.85872008,-0.00406269,0.00147524,0.01957460,1.05065651,-0.02980460,0.37195939,0.11967592,0.09392780,0.00000000,0.00000000,0.00000000,0
5.0100,-0.01498056,-0.02803343,9.73234500,-0.00148023,0.00093357,0.01451025,1.04602622,-0.01753171,0.35212196,,,0.00000000,0.00969160,0.00000000,0
5.0200,-0.06707546,0.03571197,9.83057850,0.00524411,0.00294331,0.01083808,1.01889721,-0.03663232,0.35559591,,,0.00000000,0.01938320,0.00000000,0
5.0300,0.07083871,0.07020741,9.92343300,-0.00161386,0.00457017,0.01725354,1.04548096,-0.03051049,0.37685174,,,0.00000000,0.02907480,0.00000000,0
5.0400,0.04169517,0.14503857,9.92491990,-0.00167985,0.00312704,0.01464240,1.02072787,-0.05622438,0.35231510,,,0.00000000,0.03876640,0.00000000,0
5.0500,0.01084317,0.03021577,9.90354772,0.00845002,-0.00085845,0.01271652,1.02991543,-0.02953266,0.36476824,,,0.00000000,0.04845800,0.00000000,0
5.0600,-0.03039888,-0.02399872,9.85643006,0.00276125,0.00523117,0.01718260,1.08017139,-0.04945280,0.33913877,,,0.00000000,0.05814960,0.00000000,0
5.0700,-0.12172419,-0.04418000,9.84671557,0.00647436,0.00739017,0.01188810,1.03917102,-0.05181588,0.34377507,,,0.00000000,0.06784120,0.00000000,0
5.0800,0.00394885,-0.16528753,9.84082800,-0.00195625,-0.00514455,0.01104880,1.05900633,-0.03086850,0.35460401,,,0.00000000,0.07753280,0.00000000,0
5.0900,0.03673583,-0.02161597,9.77661123,0.00299755,0.00252719,0.01392764,1.05636770,-0.05526117,0.35681349,,,0.00000000,0.08722440,0.00000000,0
5.1000,0.09201813,-0.12997304,9.85159670,-0.00312708,-0.00588691,0.01421103,1.03929463,-0.02602806,0.34031318,,,0.00000000,0.09691601,0.00000000,0
5.1100,0.14733270,-0.08693942,9.82799987,-0.00553812,-0.00650821,0.01518360,1.03365420,-0.03149344,0.36584864,,,0.00000000,0.10660761,0.00000000,0
5.1200,0.12826825,-0.06157509,9.84557949,0.00176740,0.00259867,0.01015490,1.02930160,-0.02093004,0.32370080,,,0.00000000,0.11629921,0.00000000,0
5.1300,0.05818869,0.05627689,9.68882993,-0.00275592,-0.00002746,0.02185186,1.04626752,-0.01857438,0.34162539,,,0.00000000,0.12599081,0.00000000,0
5.1400,-0.02809369,-0.11278747,9.78084692,-0.00120854,0.00023082,0.01767504,1.03570161,-0.03003669,0.35926355,,,0.00000000,0.13568241,0.00000000,0
5.1500,-0.03022268,-0.09891462,9.89473728,-0.00215172,0.00015016,0.01554302,1.05765865,-0.02719771,0.35168751,,,0.00000000,0.14537401,0.00000000,0
5.1600,-0.03297022,-0.01993820,9.90291365,0.00434491,-0.00643551,0.01589179,1.03712471,-0.02599898,0.36645309,,,0.00000000,0.15506561,0.00000000,0
5.1700,-0.01984425,-0.01926569,10.00420153,-0.00560962,0.00623204,0.00496405,1.04376280,-0.03803772,0.35006661,,,0.00000000,0.16475721,0.00000000,0
5.1800,0.06640432,-0.08219988,9.86467835,-0.00334093,-0.00184921,0.01867066,1.02842885,-0.04274646,0.34786896,,,0.00000000,0.17444881,0.00000000,0
5.1900,-0.03503536,-0.00776872,9.94059593,-0.00023736,0.00169696,0.01088049,1.03159312,-0.01876785,0.33756758,,,0.00000000,0.18414041,0.00000000,0
5.2000,-0.02703554,-0.04702191,9.96098369,-0.00562668,0.00511279,0.01698605,1.04104764,-0.04714815,0.36659631,,,0.00000000,0.19383201,0.00000000,0
5.2100,-0.00067886,-0.01448850,9.78630954,0.00113614,0.00362049,0.01019288,1.04443550,-0.01154685,0.36298087,,,0.00000000,0.20352361,0.00000000,0
5.2200,-0.02694286,-0.07166036,10.04410560,0.00174128,-0.00081064,0.01891325,1.02505608,-0.02943993,0.34584041,,,0.00000000,0.21321521,0.00000000,0
5.2300,0.00727599,-0.07207302,9.82494452,0.00062916,0.00493522,0.01283130,1.03239655,-0.04489910,0.35052354,,,0.00000000,0.22290681,0.00000000,0
5.2400,0.02675181,0.02295193,9.88515923,-0.00202383,-0.00513111,0.01412230,1.04135068,-0.02689921,0.39116727,,,0.00000000,0.23259841,0.00000000,0
5.2500,0.20462517,-0.01220058,9.98579233,-0.00328427,0.00451842,0.02108715,1.03764725,-0.02872201,0.35369116,,,0.00000000,0.24229001,0.00000000,0
5.2600,0.06213689,0.01944812,9.75451200,0.00557573,-0.00487533,0.01893157,1.03632156,-0.03436746,0.35582456,,,0.00000000,0.25198161,0.00000000,0
5.2700,0.02983524,-0.03409185,9.85056344,-0.00467115,0.00183183,0.00946963,1.03715176,-0.01932392,0.36123047,,,0.00000000,0.26167321,0.00000000,0
5.2800,-0.13223029,0.04244958,9.83902797,0.00241669,0.00358125,0.01217875,1.02723523,-0.02993908,0.35949352,,,0.00000000,0.27136481,0.00000000,0
5.2900,0.00495429,-0.04764020,9.85175366,-0.00810000,-0.00815229,0.01574857,1.03605673,-0.03330877,0.35366024,,,0.00000000,0.28105642,0.00000000,0
5.3000,0.07256787,-0.12788284,9.79551664,0.00236208,0.00522343,0.01403738,1.04887921,-0.02740733,0.34722587,,,0.00000000,0.29074802,0.00000000,0
5.3100,0.06325066,-0.01321158,9.83986762,0.00030573,0.00105030,0.01820408,1.03934566,-0.01210773,0.34123802,,,0.00000000,0.30043962,0.00000000,0
5.3200,-0.00591299,-0.08988150,9.86533159,-0.00028855,-0.00450165,0.01223410,1.04951067,-0.03352227,0.40863773,,,0.00000000,0.31013122,0.00000000,0
5.3300,0.13445860,-0.10557106,9.99186545,0.00168897,0.00157045,0.00746623,1.04912290,-0.02918683,0.35347951,,,0.00000000,0.31982282,0.00000000,0
5.3400,0.10751852,-0.05440596,9.93264602,-0.00003191,-0.00706637,0.01132329,1.01813057,-0.03733902,0.38398190,,,0.00000000,0.32951442,0.00000000,0
5.3500,-0.07727227,-0.15328756,9.76681752,-0.00097613,-0.00179018,0.01423193,1.04523643,-0.03409380,0.35492516,,,0.00000000,0.33920602,0.00000000,0
5.3600,0.00722028,-0.03664659,9.82878890,0.00592229,-0.00014301,0.01716392,1.04070061,-0.04362194,0.35659383,,,0.00000000,0.34889762,0.00000000,0
5.3700,0.04795382,-0.17645196,9.90962878,-0.00241758,0.00313261,0.01794753,1.04738690,-0.05118392,0.35162359,,,0.00000000,0.35858922,0.00000000,0
5.3800,-0.07354405,-0.05263287,9.83697426,0.00051797,-0.00130094,0.01995695,1.00075847,-0.05416065,0.36705017,,,0.00000000,0.36828082,0.00000000,0
5.3900,-0.05249685,-0.10261361,9.78951959,0.00241728,-0.00774676,0.01591363,1.05770795,-0.00323895,0.33651474,,,0.00000000,0.37797242,0.00000000,0
5.4000,0.03904611,0.06208197,9.91515453,-0.00333803,0.00047938,0.01416055,1.03884946,-0.03474942,0.37036027,,,0.00000000,0.38766402,0.00000000,0
5.4100,-0.03955928,-0.03964403,9.79639064,-0.00152586,-0.00153111,0.01789583,1.04470742,-0.02874716,0.36371246,,,0.00000000,0.39735562,0.00000000,0
5.4200,0.07598498,-0.12957566,9.96915989,0.00225295,-0.00276387,0.01457281,1.03356613,-0.01596682,0.35022789,,,0.00000000,0.40704722,0.00000000,0
5.4300,0.00121561,-0.01868178,9.89736945,-0.00585562,0.00561432,0.01309636,1.05586980,-0.02725801,0.35841183,,,0.00000000,0.41673882,0.00000000,0
5.4400,0.12260952,0.08269547,9.95469162,0.00474790,-0.00184140,0.01310042,1.02381309,-0.05196735,0.33263383,,,0.00000000,0.42643042,0.00000000,0
5.4500,0.05074871,0.16546444,9.97062032,-0.00059099,0.00278642,0.01868641,1.04711249,-0.06064881,0.37462985,,,0.00000000,0.43612202,0.00000000,0
5.4600,0.03204170,0.19431199,9.88525095,0.00521035,0.00275568,0.02091466,1.03544379,-0.04913363,0.36003784,,,0.00000000,0.44581362,0.00000000,0
5.4700,0.04695146,0.01753703,9.85100508,0.00685053,-0.00286366,0.02023669,1.02234747,-0.02935725,0.35126372,,,0.00000000,0.45550522,0.00000000,0
5.4800,0.10220662,-0.00199332,9.92981588,0.00029215,-0.00606998,0.00857635,1.05720736,-0.01706746,0.36848153,,,0.00000000,0.46519683,0.00000000,0
5.4900,0.06788928,0.13633765,9.70792357,-0.00083832,0.00692349,0.01934434,1.03348074,-0.01208883,0.35406502,,,0.00000000,0.47488843,0.00000000,0
5.5000,0.03174057,0.17612024,9.83458507,0.00020117,0.00096088,0.01048940,1.04174316,-0.02360898,0.35897494,,,0.00000000,0.48458003,0.00000000,0
5.5100,0.04722454,-0.05717393,9.96751317,0.00208393,-0.00407955,0.01360608,1.02099548,-0.02071381,0.33241537,,,0.00000000,0.49427163,0.00000000,0
5.5200,-0.01299462,0.20998126,9.79474055,0.00683373,-0.00003522,0.01731752,1.04676657,-0.03093111,0.35614000,,,0.00000000,0.50396323,0.00000000,0
5.5300,0.09538139,0.12665483,10.04918126,0.00074460,0.00072212,0.00963701,1.02446442,-0.01570906,0.35293287,,,0.00000000,0.51365483,0.00000000,0
5.5400,-0.03405678,0.09941575,10.22469766,-0.00121601,-0.00488387,0.01006437,1.05215690,-0.04037401,0.34483521,,,0.00000000,0.52334643,0.00000000,0
5.5500,-0.02639617,0.09351782,10.10635419,-0.00379856,0.00726853,0.01197106,1.04104073,-0.01528254,0.33624103,,,0.00000000,0.53303803,0.00000000,0
5.5600,-0.04180470,0.24412885,10.37529138,-0.00267585,-0.00019251,0.02172620,1.03179698,-0.03712331,0.35119766,,,0.00000000,0.54272963,0.00000000,0
5.5700,-0.01632849,0.00752740,10.46671369,-0.00182849,-0.00055528,0.01927978,1.03353615,-0.01459968,0.36516176,,,0.00000000,0.55242123,0.00000000,0
5.5800,0.12867124,0.20600544,10.62624636,-0.00103138,0.00509072,0.01137908,1.04038707,-0.01791150,0.36974875,,,0.00000000,0.56211283,0.00000000,0
5.5900,-0.02940202,0.11959222,10.60335622,-0.00548650,-0.00176211,0.01552627,1.03126274,-0.04031055,0.36494114,,,0.00000000,0.57180443,0.00000000,0
5.6000,-0.07345303,0.20274755,10.85072838,-0.00266873,0.00033472,0.01551583,1.07034961,-0.06374975,0.34619116,,,0.00000000,0.58149603,0.00000000,0
5.6100,0.22236573,0.12006714,11.04056017,0.00216680,-0.00073479,0.01622474,1.05122458,-0.04142428,0.36745703,,,0.00000000,0.59118763,0.00000000,0
5.6200,0.10383082,0.24711942,11.29952240,-0.00352247,0.00147414,0.01213210,1.04328074,-0.04781625,0.34845067,,,0.00000000,0.60087923,0.00000000,0
5.6300,-0.05737161,0.12093515,11.50538258,0.00710710,-0.00008287,0.02073860,1.04538490,-0.04271429,0.36345773,,,0.00000000,0.61057083,0.00000000,0
5.6400,0.00054072,0.01728416,11.56365699,0.00323113,-0.00034843,0.01345699,1.04450825,-0.03428113,0.36064494,,,0.00000000,0.62026243,0.00000000,0
5.6500,0.05119742,-0.02111002,11.48205278,-0.00021539,-0.00297357,0.01825247,1.03492301,-0.02680637,0.34083174,,,0.00000000,0.62995403,0.00000000,1
5.6600,-0.02045300,0.07899030,11.49111592,-0.00286682,0.00463929,0.00823837,1.06024982,-0.03371677,0.37164132,,,0.00000000,0.63774757,0.00000000,0
5.6700,0.13203576,0.10077342,11.27025202,-0.00166338,-0.00184117,0.01654230,1.07066894,-0.00738219,0.35481940,,,0.00000000,0.64554110,0.00000000,0
5.6800,0.07255924,0.10517254,11.29710226,0.00811845,-0.00378899,0.01555453,1.04231037,-0.03054673,0.35951711,,,0.00000000,0.65333463,0.00000000,0
5.6900,0.12240477,-0.02028402,11.01572761,0.00048904,-0.00124153,0.02040655,1.02826789,-0.05580767,0.35966594,,,0.00000000,0.66112816,0.00000000,0
5.7000,0.11440560,-0.07035378,10.73171844,-0.00520674,0.00341061,0.00458679,1.04074909,-0.00798584,0.38094793,,,0.00000000,0.66892169,0.00000000,0
5.7100,0.12202400,-0.05086843,10.68959969,-0.00408560,0.00652863,0.01719626,1.02051812,-0.04320699,0.36615379,,,0.00000000,0.67671522,0.00000000,0
5.7200,-0.07183835,-0.10580702,10.44119833,0.00476089,-0.00595857,0.01822942,1.05693383,-0.02811263,0.35593248,,,0.00000000,0.68450875,0.00000000,0
5.7300,0.01114801,0.02396028,10.18913061,-0.00214060,0.00256480,0.01391470,1.01367661,0.00282446,0.34508354,,,0.00000000,0.69230228,0.00000000,0
5.7400,0.10017385,-0.10517365,10.15198538,-0.00780219,0.00008293,0.02023886,1.04815675,-0.02500836,0.34225588,,,0.00000000,0.70009581,0.00000000,0
5.7500,0.09422843,-0.02073228,10.00556605,0.00409061,-0.00016642,0.02338887,1.05233434,-0.00900827,0.35440169,,,0.00000000,0.70788934,0.00000000,0
5.7600,0.18756741,-0.08701859,10.06508682,-0.00079585,-0.00424096,0.01850019,1.04216166,-0.02047390,0.36914876,,,0.00000000,0.71568288,0.00000000,0
5.7700,0.05599123,0.09197917,9.94811945,0.00017247,-0.00196777,0.01821601,1.05247632,-0.04263771,0.34171659,,,0.00000000,0.72347641,0.00000000,0
5.7800,0.12064717,-0.08247867,10.03193376,-0.00620926,0.00949562,0.02037526,1.03218040,-0.06852349,0.33614668,,,0.00000000,0.73126994,0.00000000,0
5.7900,-0.02103877,-0.05383492,10.06547905,0.00293549,-0.00529105,0.01673637,1.03729989,-0.03946589,0.34302718,,,0.00000000,0.73906347,0.00000000,0
5.8000,0.06535771,-0.01741951,10.07498541,-0.00353199,-0.00095060,0.01989217,1.05274085,-0.02510730,0.36685879,,,0.00000000,0.74685700,0.00000000,0
5.8100,0.06890853,-0.09251740,9.94321318,0.00534339,-0.00214916,0.01737809,1.03766566,-0.03588820,0.34268415,,,0.00000000,0.75465053,0.00000000,0
5.8200,-0.05453447,0.06226506,9.97432418,0.00500543,0.00006354,0.01224085,1.04359494,-0.05582345,0.34258359,,,0.00000000,0.76244406,0.00000000,0
5.8300,-0.00583673,-0.07880796,9.88822782,0.00134960,-0.00267928,0.01077567,1.04848086,-0.01775091,0.35415150,,,0.00000000,0.77023759,0.00000000,0
5.8400,0.04113241,-0.10721303,9.91751929,-0.00050298,0.00408064,0.01968308,1.02356886,-0.02176459,0.34452447,,,0.00000000,0.77803112,0.00000000,0
5.8500,-0.12335006,-0.06393222,9.83869223,-0.00658957,0.00224867,0.01737683,1.03828317,-0.04380337,0.38113236,,,0.00000000,0.78582466,0.00000000,0
5.8600,0.01813876,-0.00494340,9.77223026,0.00745399,-0.00179960,0.01230093,1.06143210,-0.04204386,0.33834479,,,0.00000000,0.79361819,0.00000000,0
5.8700,0.08708121,-0.04408667,9.81819586,0.00760507,-0.00593435,0.01508877,1.03930661,-0.02097351,0.37299451,,,0.00000000,0.80141172,0.00000000,0
5.8800,-0.06934609,-0.12442869,9.89891873,0.00917026,-0.00116419,0.02084369,1.03921811,-0.04770835,0.35927221,,,0.00000000,0.80920525,0.00000000,0
5.8900,-0.03710793,-0.02471521,9.95499753,0.00092895,0.00432185,0.00812354,1.04384496,-0.05273719,0.35130485,,,0.00000000,0.81699878,0.00000000,0
5.9000,0.12261141,0.09493458,9.84631225,0.00044925,-0.00137101,0.01137281,1.03577578,-0.04399153,0.35822749,,,0.00000000,0.82479231,0.00000000,0
5.9100,-0.04681193,0.05171745,9.89477443,0.00124010,0.00535622,0.01777743,1.05512256,-0.01548358,0.34226323,,,0.00000000,0.83258584,0.00000000,0
5.9200,0.12991605,-0.02905287,9.96565398,0.00744446,-0.00350992,0.01828056,1.03162644,-0.02006251,0.35027140,,,0.00000000,0.84037937,0.00000000,0
5.9300,0.10771099,0.02737629,9.91028266,0.00718188,0.00526711,0.01029541,1.03501996,0.00158808,0.31830951,,,0.00000000,0.84817290,0.00000000,0
5.9400,0.07181592,-0.01128181,9.88807279,-0.00361060,-0.00291305,0.01099901,1.03066383,-0.04197602,0.35427534,,,0.00000000,0.85596643,0.00000000,0
5.9500,0.11921557,-0.07085571,10.00885491,0.00127024,-0.00101921,0.01564637,1.06448563,-0.03204502,0.35094661,,,0.00000000,0.86375997,0.00000000,0
5.9600,0.03150060,0.04897922,9.86278074,-0.00301850,0.00211726,0.02060841,1.04228815,-0.03434252,0.36044884,,,0.00000000,0.87155350,0.00000000,0
5.9700,0.02026672,0.13279899,9.84525243,-0.00572331,-0.00148933,0.01503182,1.07642890,-0.03984324,0.35207715,,,0.00000000,0.87934703,0.00000000,0
5.9800,-0.06217734,-0.08680146,9.84462177,-0.00230608,0.01448895,0.00568908,1.03897132,-0.06010711,0.36367371,,,0.00000000,0.88714056,0.00000000,0
5.9900,0.21241535,-0.01298163,9.94477707,-0.00141249,-0.00240771,0.01910415,1.03911869,-0.05808931,0.35114832,,,0.00000000,0.89493409,0.00000000,0
6.0000,-0.04012800,-0.00109591,9.92371827,-0.00760164,-0.00017245,0.01489786,1.04236889,-0.04279827,0.37058903,,,0.00000000,0.90272762,0.00000000,0
6.0100,0.18413016,-0.08470120,9.91827916,0.00604271,-0.00669233,0.01314806,1.03148895,-0.05137577,0.36649861,,,0.00000000,0.91052115,0.00000000,0
6.0200,0.06420671,-0.11031511,9.86844350,0.00548635,-0.00800557,0.01033735,1.03804868,-0.02800118,0.33191486,,,0.00000000,0.91831468,0.00000000,0
6.0300,0.01892201,-0.21403236,9.91789353,-0.00658732,0.00213623,0.01976634,1.02020615,-0.04448725,0.35278653,,,0.00000000,0.92610821,0.00000000,0
6.0400,0.08321947,-0.06234503,9.76291504,-0.00001555,0.00117422,0.01605487,1.03804473,-0.01024546,0.37703268,,,0.00000000,0.93390175,0.00000000,0
6.0500,0.15839047,-0.00492533,9.95133610,0.00118326,0.00463092,0.01660279,1.04188364,-0.03137416,0.38218279,,,0.00000000,0.94169528,0.00000000,0
6.0600,0.15282574,-0.06653729,9.93497236,-0.00056998,0.00159664,0.01638689,1.04083371,-0.01551926,0.34802707,,,0.00000000,0.94948881,0.00000000,0
6.0700,0.02070808,-0.02813980,9.86315075,-0.00669261,0.00024571,0.01673011,1.03853217,-0.03397121,0.34506901,,,0.00000000,0.95728234,0.00000000,0
6.0800,0.03989449,0.06817921,9.87990621,0.00203209,0.00424026,0.01833463,1.04535472,-0.04183525,0.35342650,,,0.00000000,0.96507587,0.00000000,0
6.0900,0.02770138,-0.04030504,9.89730516,0.00528570,-0.00405167,0.02184581,1.04589862,0.00020240,0.32772272,,,0.00000000,0.97286940,0.00000000,0
6.1000,-0.03158945,-0.05499043,9.86581764,-0.00404646,0.00024434,0.01072902,1.04106932,-0.02060650,0.35004389,,,0.00000000,0.98066293,0.00000000,0
6.1100,-0.00526786,-0.02011146,9.82113810,-0.00080846,-0.00495699,0.01468295,1.05246102,-0.02240877,0.36198485,,,0.00000000,0.98845646,0.00000000,0
6.1200,0.20031662,0.10066191,9.90599690,-0.00178678,0.00247612,0.01316931,1.03399153,-0.03308357,0.35174603,,,0.00000000,0.99624999,0.00000000,0
6.1300,0.03571052,0.17546900,9.89583823,0.00476199,0.00094958,0.02172020,1.02583781,-0.02741639,0.33986402,,,0.00000000,1.00404352,0.00000000,0
6.1400,0.03305236,0.03128496,9.89448079,-0.00070542,-0.00584682,0.01383047,1.02666154,-0.04986279,0.37075629,,,0.00000000,1.01183706,0.00000000,0
6.1500,0.15282542,0.01333044,10.03795969,0.00587143,-0.00010563,0.00853336,1.03191814,-0.04269211,0.36634672,,,0.00000000,1.01963059,0.00000000,0
6.1600,-0.03056170,0.07916621,9.78988778,-0.00591216,-0.00919953,0.01487449,1.03400402,-0.02521970,0.35243186,,,0.00000000,1.02742412,0.00000000,0
6.1700,0.18536808,0.00692890,9.86542576,-0.00104066,-0.00618918,0.01204957,1.04514961,-0.02729712,0.32402993,,,0.00000000,1.03521765,0.00000000,0
6.1800,0.11393895,0.14438027,9.78123580,0.00128492,0.00263799,0.01202019,1.06100195,-0.01566141,0.33413167,,,0.00000000,1.04301118,0.00000000,0
6.1900,0.01230728,-0.05635491,9.88139629,0.00332006,-0.00149314,0.01319409,1.05272751,-0.03325788,0.35663683,,,0.00000000,1.05080471,0.00000000,0
6.2000,0.03189020,0.03912702,9.81612229,0.00246640,-0.00427184,0.00974767,1.05834062,-0.01579003,0.36895044,,,0.00000000,1.05859824,0.00000000,0
6.2100,0.00912748,0.01941166,9.91412558,0.00369772,-0.00091673,0.00724122,1.06869437,-0.01443749,0.34638831,,,0.00000000,1.06639177,0.00000000,0
6.2200,0.16127600,-0.06325457,9.86430811,0.01558227,0.00345094,0.02279105,1.02170074,-0.01804844,0.33053658,,,0.00000000,1.07418530,0.00000000,0
6.2300,0.00654626,0.14235842,9.80070865,0.00737256,0.00402826,0.01447501,1.03497426,-0.03515790,0.34493699,,,0.00000000,1.08197884,0.00000000,0
6.2400,0.02828513,0.03091938,9.93834742,0.00289457,-0.00372392,0.01123538,1.05934425,-0.02542230,0.35177968,,,0.00000000,1.08977237,0.00000000,0
6.2500,0.04794197,0.11130046,9.92199129,-0.00628513,0.00175182,0.01747647,1.05278787,-0.03586058,0.37214690,,,0.00000000,1.09756590,0.00000000,0
6.2600,0.02028134,0.00873157,9.95591833,-0.00636398,0.00788040,0.02032226,1.06919685,-0.03186564,0.35264264,,,0.00000000,1.10535943,0.00000000,0
6.2700,0.06306161,0.12791917,10.01183730,0.00430643,-0.00213586,0.00798250,1.05644992,-0.05800625,0.33707803,,,0.00000000,1.11315296,0.00000000,0
6.2800,0.13747964,0.05820868,9.90762288,-0.00266204,0.01023928,0.01319125,1.02532522,-0.05309866,0.35492459,,,0.00000000,1.12094649,0.00000000,0
6.2900,0.16378281,0.26239093,9.96412396,0.00745345,0.00325312,0.01610656,1.04421024,-0.03042241,0.35457505,,,0.00000000,1.12874002,0.00000000,0
6.3000,-0.05445680,0.09899458,10.05607208,0.00067068,-0.00092075,0.01160039,1.05304369,-0.01470189,0.37272166,,,0.00000000,1.13653355,0.00000000,0
6.3100,-0.08672527,0.15139518,10.08866164,0.00072066,-0.00055436,0.01678542,1.03793884,-0.02977304,0.37599891,,,0.00000000,1.14432708,0.00000000,0
6.3200,-0.05683117,0.21891714,10.25508592,-0.00118513,0.00255077,0.01002545,1.04583549,-0.01119539,0.34819356,,,0.00000000,1.15212061,0.00000000,0
6.3300,0.03428231,0.19062755,10.51545481,0.00150276,-0.00050270,0.01231219,1.03932604,-0.03918612,0.35466249,,,0.00000000,1.15991415,0.00000000,0
6.3400,0.01303839,0.13663599,10.54219794,-0.00362010,-0.00295159,0.01449359,1.04604834,-0.03642881,0.38296443,,,0.00000000,1.16770768,0.00000000,0
6.3500,0.17979038,0.17629641,10.68663462,-0.00098465,0.00467329,0.01669546,1.01876619,-0.01768325,0.33943937,,,0.00000000,1.17550121,0.00000000,0
6.3600,0.04032464,0.17126283,10.97726525,-0.00828960,0.00290284,0.01513545,1.04419612,-0.04103393,0.35599229,,,0.00000000,1.18329474,0.00000000,0
6.3700,0.18633361,0.21285345,11.04367288,-0.00039339,0.01054990,0.01225048,1.04098811,-0.04145471,0.33754817,,,0.00000000,1.19108827,0.00000000,0
6.3800,0.03286556,-0.01121683,11.22485253,0.00251586,0.00398228,0.01350183,1.02978309,-0.02975580,0.36652843,,,0.00000000,1.19888180,0.00000000,0
6.3900,0.05208168,0.29550638,11.28907065,0.00403613,-0.00239830,0.00650807,1.06288157,-0.05461594,0.36145509,,,0.00000000,1.20667533,0.00000000,0
6.4000,-0.12746019,0.01337804,11.31682014,-0.00180682,0.00658939,0.02352623,1.03324023,-0.02989752,0.35949146,,,0.00000000,1.21446886,0.00000000,1
6.4100,-0.06048122,-0.01403793,11.25246327,-0.00237344,0.00487873,0.01333853,1.05124429,-0.02428116,0.35459586,,,0.00000000,1.22271092,0.00000000,0
6.4200,0.06734493,0.03082006,11.13460818,0.00452572,-0.00118386,0.01379582,1.06220246,-0.02606513,0.35485867,,,0.00000000,1.23095492,0.00000000,0
6.4300,0.10301450,-0.00970921,11.04803576,-0.00033339,-0.00105266,0.01603914,1.05615635,-0.04636345,0.34152545,,,0.00000000,1.23919891,0.00000000,0
6.4400,-0.07037213,-0.03915916,10.99241658,0.00077732,-0.00225638,0.01726433,1.06064311,-0.03291629,0.32948000,,,0.00000000,1.24744291,0.00000000,0
6.4500,-0.08941241,0.00922530,10.83375380,0.00708562,-0.00148107,0.01635053,1.05128332,-0.01293217,0.34385187,,,0.00000000,1.25568691,0.00000000,0
6.4600,0.00983131,0.02628114,10.52029881,-0.00917900,-0.01137187,0.01226103,1.02127286,-0.03086383,0.35996415,,,0.00000000,1.26393091,0.00000000,0
6.4700,0.14482223,0.08834654,10.47053207,0.00571931,-0.00656568,0.00833536,1.03135608,-0.04316829,0.36230948,,,0.00000000,1.27217490,0.00000000,0
6.4800,-0.10040631,-0.08929332,10.38899904,-0.00740449,0.00467498,0.01427586,1.04740810,-0.05274459,0.33894117,,,0.00000000,1.28041890,0.00000000,0
6.4900,0.17704969,0.01313503,10.29178303,0.00147245,0.00569681,0.01177727,1.03520811,-0.03913034,0.35784212,,,0.00000000,1.28866290,0.00000000,0
6.5000,-0.00862094,-0.02989633,10.09673384,0.00438445,-0.00222652,0.01275930,1.04708832,-0.00383334,0.35990520,,,0.00000000,1.29690689,0.00000000,0
6.5100,0.07384774,-0.14046042,10.09898635,-0.00413908,-0.00705152,0.01496488,1.05288845,-0.05236664,0.34494500,,,0.00000000,1.30515089,0.00000000,0
6.5200,0.14580373,-0.11281520,9.86206508,-0.00062684,0.00068696,0.01593698,1.05479116,-0.05090312,0.37378555,,,0.00000000,1.31339489,0.00000000,0
6.5300,0.06804481,-0.07546406,9.74363847,0.00846169,-0.00215584,0.02014690,1.04754553,-0.02834428,0.35304793,,,0.00000000,1.32163889,0.00000000,0
6.5400,0.10468668,-0.01240408,9.87029910,0.00141010,-0.00046422,0.01438119,1.02320707,-0.04560504,0.34722261,,,0.00000000,1.32988288,0.00000000,0
6.5500,0.20907554,-0.01508285,9.83220900,0.00394478,-0.00289772,0.00805469,1.03361577,-0.01281083,0.34023809,,,0.00000000,1.33812688,0.00000000,0
6.5600,0.04809214,-0.11042815,9.82173947,0.00109380,0.00055594,0.01731290,1.03082963,-0.05500550,0.35702384,,,0.00000000,1.34637088,0.00000000,0
6.5700,0.07090902,-0.07233330,9.84080927,-0.00259341,0.00084351,0.01868305,1.03965950,-0.01477056,0.38193604,,,0.00000000,1.35461487,0.00000000,0
6.5800,0.17351559,0.04019811,9.93783219,0.00027540,0.00296814,0.00838068,1.04731018,-0.04245040,0.35789107,,,0.00000000,1.36285887,0.00000000,0
6.5900,0.08230534,0.00973948,9.98834640,0.00513188,-0.00275213,0.01739635,1.04371921,-0.03114750,0.33934368,,,0.00000000,1.37110287,0.00000000,0
6.6000,0.03843632,0.11913848,9.79477268,0.00000222,0.00503233,0.01571690,1.04457608,-0.04749998,0.35348053,,,0.00000000,1.37934686,0.00000000,0
6.6100,0.01959698,-0.13980875,9.84291280,-0.00241394,-0.00125389,0.01279122,1.03538246,-0.06699978,0.36331617,,,0.00000000,1.38759086,0.00000000,0
6.6200,0.08147539,0.08642510,9.81712105,-0.00055195,0.00145066,0.01565237,1.06988365,-0.03551038,0.34589275,,,0.00000000,1.39583486,0.00000000,0
6.6300,0.04042436,-0.05851782,9.81099350,0.00634224,0.00256990,0.01652498,1.05286579,-0.04892299,0.35495950,,,0.00000000,1.40407886,0.00000000,0
6.6400,-0.05515036,-0.02500028,9.73146898,0.00582097,0.00202452,0.01733697,1.04310087,-0.03829204,0.35363535,,,0.00000000,1.41232285,0.00000000,0
6.6500,0.04884345,-0.02822461,9.81739379,-0.00467254,0.00700262,0.01956356,1.02765591,-0.03854267,0.36409748,,,0.00000000,1.42056685,0.00000000,0
6.6600,-0.04087229,-0.14067506,10.01971165,-0.00830088,0.00327187,0.01491369,1.02728633,-0.03844213,0.34478092,,,0.00000000,1.42881085,0.00000000,0
6.6700,-0.06735777,0.09466944,9.91801520,-0.00400123,-0.00071434,0.01493995,1.04689180,-0.03563800,0.34258787,,,0.00000000,1.43705484,0.00000000,0
6.6800,0.01087832,-0.12251822,9.95340021,0.00257628,-0.00071885,0.02464062,1.04437109,-0.05883038,0.32769229,,,0.00000000,1.44529884,0.00000000,0
6.6900,0.17837210,-0.10466925,9.84610064,0.00599658,0.00031568,0.01067998,1.04376936,-0.00392505,0.34771463,,,0.00000000,1.45354284,0.00000000,0
6.7000,0.12412990,-0.00306901,10.02999696,-0.00374556,-0.00008032,0.01386609,1.04446774,-0.05002716,0.35641200,,,0.00000000,1.46178683,0.00000000,0
6.7100,-0.00561156,0.01348051,9.76992579,-0.00222451,-0.00410504,0.01354372,1.04245706,-0.02218340,0.34413519,,,0.00000000,1.47003083,0.00000000,0
6.7200,0.20767134,-0.08828358,9.69336265,0.00041606,0.00006605,0.01804163,1.06711393,-0.04392203,0.37622941,,,0.00000000,1.47827483,0.00000000,0
6.7300,0.02993888,-0.04094013,10.02324572,-0.00482949,0.00099074,0.01940020,1.02443027,-0.01909339,0.37372819,,,0.00000000,1.48651883,0.00000000,0
6.7400,0.01289443,-0.03069299,9.91747511,-0.00106681,0.00259046,0.00967044,1.07051259,-0.03193381,0.33131919,,,0.00000000,1.49476282,0.00000000,0
6.7500,0.16690165,-0.03458922,9.95315823,-0.00506478,0.00361097,0.01989786,1.05171089,-0.04034517,0.33947804,,,0.00000000,1.50300682,0.00000000,0
6.7600,0.08144677,-0.05301533,9.87620436,-0.00033973,0.01030592,0.01020220,1.03139485,-0.04316862,0.36559308,,,0.00000000,1.51125082,0.00000000,0
6.7700,0.04229391,-0.10229791,9.96709446,-0.00345985,0.00192138,0.02541948,1.04243410,-0.02051956,0.36698762,,,0.00000000,1.51949481,0.00000000,0
6.7800,-0.07084962,0.06509323,9.94635355,0.00659365,0.00423762,0.01227892,1.03427725,-0.02020879,0.37203210,,,0.00000000,1.52773881,0.00000000,0
6.7900,0.03255606,-0.08926889,9.85188599,0.00269844,0.00237657,0.01939328,1.06618561,-0.02779250,0.35109576,,,0.00000000,1.53598281,0.00000000,0
6.8000,0.07782197,0.03217411,9.89295352,-0.00236769,-0.00514871,0.01389422,1.02659177,-0.03577553,0.35496109,,,0.00000000,1.54422681,0.00000000,0
6.8100,0.11937091,-0.07085316,9.88876611,-0.00104889,-0.00629308,0.01780974,1.04340534,-0.04927674,0.34909701,,,0.00000000,1.55247080,0.00000000,0
6.8200,-0.08546766,0.03615637,9.88225410,0.00185631,-0.00165403,0.01196876,1.03698473,-0.03857781,0.34616224,,,0.00000000,1.56071480,0.00000000,0
6.8300,0.00675407,0.06969905,9.92532209,0.00507628,-0.00065697,0.01549893,1.04478448,-0.04399360,0.36154455,,,0.00000000,1.56895880,0.00000000,0
6.8400,-0.18531154,-0.01785865,9.75359809,0.00408571,-0.00520755,0.01506021,1.02455388,-0.02708781,0.33906090,,,0.00000000,1.57720279,0.00000000,0
6.8500,0.12533279,0.18080482,9.82851735,0.01045357,-0.00048557,0.01533999,1.05660960,-0.01962682,0.37391212,,,0.00000000,1.58544679,0.00000000,0
6.8600,0.04596633,-0.03503113,9.89806514,-0.00088404,-0.00219736,0.01815259,1.02794047,-0.04887089,0.33611247,,,0.00000000,1.59369079,0.00000000,0
6.8700,0.09156392,0.09213577,9.79100656,-0.00151930,0.00008134,0.01320294,1.03666301,-0.01504127,0.36491313,,,0.00000000,1.60193478,0.00000000,0
6.8800,0.16573078,-0.08042984,9.89216786,0.00238068,-0.00697410,0.01367112,1.04942452,-0.04765089,0.37026242,,,0.00000000,1.61017878,0.00000000,0
6.8900,0.13268613,0.05697553,9.79491611,0.00341425,-0.00165982,0.00969798,1.05026452,-0.03790719,0.31863304,,,0.00000000,1.61842278,0.00000000,0
6.9000,-0.01615389,-0.03028434,9.86591208,0.00141621,-0.00564179,0.01441307,1.02854259,-0.03203119,0.37727567,,,0.00000000,1.62666678,0.00000000,0
6.9100,0.13175626,-0.08887517,9.90735060,-0.00400170,0.00123444,0.01300071,1.04292804,-0.03106714,0.37746491,,,0.00000000,1.63491077,0.00000000,0
6.9200,0.08879779,0.06788328,9.90734039,0.00886336,-0.00012090,0.01851150,1.06199169,-0.02475480,0.36370761,,,0.00000000,1.64315477,0.00000000,0
6.9300,0.16146545,0.07193564,9.93864248,0.00140129,0.00342044,0.01765734,1.05769432,-0.04038920,0.36063608,,,0.00000000,1.65139877,0.00000000,0
6.9400,0.08508372,0.18690291,9.71821302,-0.00143501,0.00136161,0.01207145,1.03382361,-0.04389990,0.36197098,,,0.00000000,1.65964276,0.00000000,0
6.9500,0.14256869,0.03382886,9.84798065,-0.00293566,0.00355942,0.01674346,1.05563574,-0.00344056,0.36595179,,,0.00000000,1.66788676,0.00000000,0
6.9600,-0.03755814,-0.08300025,9.84038495,0.00045346,-0.00076854,0.02023575,1.05614023,-0.03263037,0.33346567,,,0.00000000,1.67613076,0.00000000,0
6.9700,-0.01498346,0.11810394,9.75414884,0.00073703,0.00501857,0.01413125,1.03085483,-0.02436060,0.34648954,,,0.00000000,1.68437475,0.00000000,0
6.9800,0.15452905,0.11241147,9.85400004,-0.00176713,-0.00365798,0.01027279,1.06731893,-0.01264239,0.35214915,,,0.00000000,1.69261875,0.00000000,0
6.9900,-0.01675387,0.03946727,9.78692680,0.00421466,0.00107754,0.02483294,1.06474709,-0.02074565,0.37847002,,,0.00000000,1.70086275,0.00000000,0
7.0000,-0.00354886,0.11408262,9.86933596,0.00214662,0.00171200,0.01719073,1.03743943,-0.01877258,0.35172054,0.35117964,1.23485443,0.00000000,1.70910675,0.00000000,0
7.0100,-0.07315903,0.10251625,9.82258283,-0.00410882,-0.00237159,0.01779161,1.04021052,-0.01354825,0.38238731,,,0.00000000,1.71735074,0.00000000,0
7.0200,0.05279057,0.28184012,9.96117149,0.00177950,-0.00135140,0.02500636,1.04183723,-0.02569413,0.34243955,,,0.00000000,1.72559474,0.00000000,0
7.0300,0.01495040,0.00996494,9.82477451,0.00578385,-0.00174873,0.01177491,1.03702986,-0.02284192,0.33716121,,,0.00000000,1.73383874,0.00000000,0
7.0400,-0.09493787,0.20346846,9.91688101,-0.00113876,-0.00335834,0.01619818,1.03386520,-0.04591610,0.35791496,,,0.00000000,1.74208273,0.00000000,0
7.0500,0.04500802,0.09901822,10.04297837,-0.00203684,-0.00320013,0.00738191,1.05283694,-0.02506467,0.35107222,,,0.00000000,1.75032673,0.00000000,0
7.0600,0.15213417,0.09520156,10.08747271,-0.00454242,-0.00152471,0.01694768,1.02562599,-0.05303883,0.35533865,,,0.00000000,1.75857073,0.00000000,0
7.0700,-0.02450751,0.21896582,10.13636347,-0.00029511,0.00219508,0.01655892,1.06184333,-0.03374440,0.35412955,,,0.00000000,1.76681473,0.00000000,0
7.0800,-0.05063866,0.03481080,10.23531993,-0.00663073,-0.00152036,0.01183794,1.03372101,-0.04605804,0.37034711,,,0.00000000,1.77505872,0.00000000,0
7.0900,0.07767155,0.34611516,10.42232540,0.00568874,-0.00031479,0.01156076,1.05024255,-0.05104639,0.33731975,,,0.00000000,1.78330272,0.00000000,0
7.1000,0.11612367,0.15356044,10.58700508,0.00711640,-0.00128898,0.01427038,1.05933521,-0.04251245,0.35443693,,,0.00000000,1.79154672,0.00000000,0
7.1100,0.01786404,0.10609976,10.80335186,0.00183598,-0.00092642,0.01405096,1.02534881,-0.02529806,0.34384691,,,0.00000000,1.79979071,0.00000000,0
7.1200,0.19444855,-0.03782523,11.07025474,0.00350634,0.00425914,0.02131627,1.03145391,-0.04583889,0.38230891,,,0.00000000,1.80803471,0.00000000,0
7.1300,0.06652196,0.05722212,11.21584097,-0.00123508,-0.00128488,0.01399605,1.07734845,-0.02670303,0.36470894,,,0.00000000,1.81627871,0.00000000,0
7.1400,0.11020840,0.10407111,11.36917571,-0.00653930,0.00164387,0.01433941,1.04829059,-0.02979632,0.35384499,,,0.00000000,1.82452270,0.00000000,0
7.1500,0.09543295,-0.08278347,11.54053264,0.00012205,-0.00185880,0.01426812,1.03495078,-0.01859690,0.33753101,,,0.00000000,1.83276670,0.00000000,0
7.1600,0.22226432,0.14615562,11.53524725,0.00107944,0.00149495,0.00856814,1.02813270,-0.01975142,0.33497140,,,0.00000000,1.84101070,0.00000000,1
7.1700,-0.07265976,0.04639332,11.36304032,-0.00332553,0.00164344,0.01302199,1.06335481,-0.03380160,0.35782106,,,0.00000000,1.84967887,0.00000000,0
7.1800,-0.00697554,0.12191126,11.28234089,0.00047735,-0.00079601,0.00955770,1.05920860,-0.03054286,0.35702140,,,0.00000000,1.85836932,0.00000000,0
7.1900,0.02959190,-0.11875941,11.20606209,-0.00225717,0.00302950,0.01548104,1.03168424,-0.02246667,0.36509622,,,0.00000000,1.86705977,0.00000000,0
7.2000,0.04720134,-0.03223678,10.99958394,-0.00250974,0.00207321,0.00618570,1.02748268,-0.02042107,0.36911582,,,0.00000000,1.87575023,0.00000000,0
7.2100,0.19091383,-0.08148004,10.79297750,0.00425204,0.00114977,0.01046620,1.04690862,-0.04065333,0.36855473,,,0.00000000,1.88444068,0.00000000,0
7.2200,-0.02472084,0.10333858,10.86132502,0.00378735,-0.00456972,0.01599065,1.05980101,-0.03689000,0.32885294,,,0.00000000,1.89313113,0.00000000,0
7.2300,0.06657407,-0.05683232,10.48428174,-0.00700431,-0.00784116,0.00655678,1.03000035,-0.02959188,0.37385332,,,0.00000000,1.90182159,0.00000000,0
7.2400,0.12518499,-0.07825374,10.47856198,-0.00608829,0.00220665,0.00872700,1.05734694,-0.01998335,0.34590211,,,0.00000000,1.91051204,0.00000000,0
7.2500,0.15332625,-0.00476914,10.28188285,-0.00108532,-0.00040994,0.01895373,1.05110564,-0.02996479,0.34040696,,,0.00000000,1.91920249,0.00000000,0
7.2600,0.09997968,0.10976398,10.03983784,-0.00090903,0.00069687,0.00963517,1.01438019,-0.01544698,0.33170571,,,0.00000000,1.92789295,0.00000000,0
7.2700,0.13449637,-0.04803318,9.98112884,-0.00172148,-0.00303380,0.01493174,1.05815469,0.00262214,0.35564203,,,0.00000000,1.93658340,0.00000000,0
7.2800,0.04821379,-0.03795084,9.90398336,0.00338587,-0.00155269,0.01619909,1.02800068,-0.03905739,0.34536762,,,0.00000000,1.94527385,0.00000000,0
7.2900,-0.08778643,-0.09839710,10.05748195,-0.00083209,0.00566801,0.01071830,1.04564903,-0.01542529,0.34424702,,,0.00000000,1.95396431,0.00000000,0
7.3000,0.19700556,0.02722767,10.00822761,-0.00265800,0.00207261,0.00820193,1.03534925,-0.03921996,0.37166352,,,0.00000000,1.96265476,0.00000000,0
7.3100,-0.00134664,-0.03231340,9.91802736,-0.00049061,0.00837184,0.02108438,1.05424710,-0.04210269,0.35071414,,,0.00000000,1.97134521,0.00000000,0
7.3200,-0.04650317,-0.10637715,9.89212223,0.00130713,-0.00215583,0.01273237,1.04252826,-0.05567991,0.34737318,,,0.00000000,1.98003566,0.00000000,0
7.3300,0.01437569,-0.11305120,9.90873138,0.00359314,0.00180318,0.01703646,1.04213393,-0.05005819,0.35819239,,,0.00000000,1.98872612,0.00000000,0
7.3400,0.01893766,0.05315741,9.87368109,0.00160197,-0.00174104,0.01192223,1.04080457,-0.03788318,0.37005376,,,0.00000000,1.99741657,0.00000000,0
7.3500,0.01597548,-0.01876586,9.85831140,0.00381546,-0.00287831,0.01642586,1.02661478,-0.02376452,0.35145529,,,0.00000000,2.00610702,0.00000000,0
7.3600,-0.01344368,-0.06144654,9.93096183,0.00367247,0.00079088,0.00970651,1.05592828,-0.04116743,0.36377253,,,0.00000000,2.01479748,0.00000000,0
7.3700,0.09172134,0.07338685,9.73503379,-0.00412597,-0.00255560,0.00945848,1.04901121,-0.01349999,0.37835466,,,0.00000000,2.02348793,0.00000000,0
7.3800,0.00855275,-0.06283271,9.88395591,0.00410554,0.00055244,0.01077551,1.01821829,-0.03094891,0.33953754,,,0.00000000,2.03217838,0.00000000,0
7.3900,0.00382742,-0.07082814,9.93273133,0.00011124,-0.00505483,0.01244942,1.05418847,-0.01020762,0.35079835,,,0.00000000,2.04086884,0.00000000,0
7.4000,0.05424700,-0.12315395,9.97679972,0.00498552,0.00483694,0.01244914,1.04360491,-0.01097626,0.35805724,,,0.00000000,2.04955929,0.00000000,0
7.4100,0.11974016,-0.07580672,9.93651831,-0.00275435,0.00095635,0.01364161,1.03822688,-0.05360410,0.34486644,,,0.00000000,2.05824974,0.00000000,0
7.4200,-0.01881306,0.06014082,9.85257969,-0.00330760,-0.00193532,0.01669967,1.05452316,-0.05096530,0.35927649,,,0.00000000,2.06694020,0.00000000,0
7.4300,-0.02422739,-0.05977207,9.80873590,-0.00209371,0.00097021,0.01281624,1.04326172,-0.03006719,0.36660696,,,0.00000000,2.07563065,0.00000000,0
7.4400,0.05537117,-0.01590879,9.87286508,-0.00292985,0.00022005,0.01870811,1.02930167,-0.00986512,0.34879548,,,0.00000000,2.08432110,0.00000000,0
7.4500,-0.00452924,-0.32278112,9.87742714,0.00591907,-0.00685562,0.01230844,1.05477805,-0.03829758,0.35888872,,,0.00000000,2.09301156,0.00000000,0
7.4600,-0.11169875,-0.01031750,9.96046360,0.00148267,0.00178105,0.01761802,1.03532054,-0.00560720,0.34007603,,,0.00000000,2.10170201,0.00000000,0
7.4700,0.06191085,-0.06094033,9.85560982,0.00518429,-0.00439214,0.02021763,1.03096667,-0.00877914,0.36680603,,,0.00000000,2.11039246,0.00000000,0
7.4800,0.02935499,-0.07362359,9.82329685,0.00070370,-0.00187225,0.02193735,1.03957025,-0.03362662,0.33653698,,,0.00000000,2.11908292,0.00000000,0
7.4900,-0.03391168,0.06551628,9.86875574,0.00527054,-0.00274075,0.00700235,1.03617804,-0.02474289,0.37252314,,,0.00000000,2.12777337,0.00000000,0
7.5000,0.11650171,-0.04932998,9.87577342,-0.00099355,-0.00074039,0.02187560,1.05361828,-0.00890228,0.36067137,,,0.00000000,2.13646382,0.00000000,0
7.5100,0.02636939,0.00799722,9.93613085,-0.00071861,0.00160298,0.00789553,1.02983767,-0.03491307,0.37728308,,,0.00000000,2.14515428,0.00000000,0
7.5200,0.05917637,-0.08252482,9.80760369,0.00202796,0.00558640,0.02064856,1.04168639,-0.00945301,0.33219094,,,0.00000000,2.15384473,0.00000000,0
7.5300,0.17273364,-0.05046265,9.84671183,0.00670473,-0.00169184,0.01491439,1.03304555,-0.04144250,0.35889121,,,0.00000000,2.16253518,0.00000000,0
7.5400,0.15720059,0.05972305,9.91270704,0.00074398,-0.00108297,0.01637460,1.02872856,-0.04908347,0.35400701,,,0.00000000,2.17122564,0.00000000,0
7.5500,0.00804828,0.16195084,9.90143790,0.00654051,-0.00292447,0.01117954,1.00695046,-0.03844885,0.36128412,,,0.00000000,2.17991609,0.00000000,0
7.5600,0.08375884,-0.03868286,9.75685541,0.00434169,0.00039859,0.01871257,1.02346697,-0.03064932,0.34233119,,,0.00000000,2.18860654,0.00000000,0
7.5700,-0.06678097,0.00925619,9.90134636,0.00681210,0.00292451,0.01771595,1.03510843,-0.02639828,0.36189750,,,0.00000000,2.19729699,0.00000000,0
7.5800,0.02080013,-0.11488228,9.75466738,0.00313756,-0.00515936,0.01275188,1.04641625,-0.04081933,0.37728271,,,0.00000000,2.20598745,0.00000000,0
7.5900,0.01377195,-0.13493384,9.94191326,0.00068190,-0.00178658,0.01249910,1.04488224,-0.03928493,0.37461031,,,0.00000000,2.21467790,0.00000000,0
7.6000,0.13221318,0.21122393,9.94026548,-0.00573093,0.00368828,0.01840145,1.03437626,-0.00134511,0.36749343,,,0.00000000,2.22336835,0.00000000,0
7.6100,-0.00742797,-0.08075485,9.59386202,-0.00507041,0.00066914,0.01910364,1.03864020,-0.03679372,0.34307051,,,0.00000000,2.23205881,0.00000000,0
7.6200,-0.00759113,-0.02028343,9.94742534,0.00175777,-0.00401765,0.01804863,1.02880646,-0.03381083,0.37492830,,,0.00000000,2.24074926,0.00000000,0
7.6300,0.08892801,0.04673322,9.88709231,0.00348428,0.00738715,0.01344577,1.04289082,-0.03091367,0.36147471,,,0.00000000,2.24943971,0.00000000,0
7.6400,0.09287280,0.12221628,9.78481546,0.00023519,-0.00300339,0.01498446,1.03570997,-0.04803341,0.33361992,,,0.00000000,2.25813017,0.00000000,0
7.6500,0.00341597,-0.09694675,9.99950727,0.00131269,-0.00008148,0.01873020,1.06110144,-0.03375558,0.37878644,,,0.00000000,2.26682062,0.00000000,0
7.6600,0.14374953,0.08302966,9.77415176,0.00845108,-0.00054711,0.01832599,1.06812863,-0.02552758,0.36665257,,,0.00000000,2.27551107,0.00000000,0
7.6700,0.05383558,0.01372986,9.87655200,0.00449158,0.00013001,0.01949195,1.03511588,-0.03150097,0.35661118,,,0.00000000,2.28420153,0.00000000,0
7.6800,0.02495055,0.08460795,9.83861073,0.00385154,-0.00402840,0.01554375,1.04031490,-0.00752081,0.35401220,,,0.00000000,2.29289198,0.00000000,0
7.6900,0.10836564,0.07355512,9.84699370,0.00417223,0.00271055,0.01215636,1.05362252,-0.02778457,0.36462518,,,0.00000000,2.30158243,0.00000000,0
7.7000,0.03105173,0.03076354,9.93605252,0.00004814,-0.00673577,0.01613248,1.06742177,-0.05233677,0.37260449,,,0.00000000,2.31027289,0.00000000,0
7.7100,0.01828284,0.10166979,9.84055121,0.00122707,0.00352024,0.01678789,1.03127197,-0.02662204,0.35040887,,,0.00000000,2.31896334,0.00000000,0
7.7200,-0.07880815,0.16265903,9.78921520,-0.00146529,-0.00324721,0.01284452,1.03345068,-0.04955197,0.31610663,,,0.00000000,2.32765379,0.00000000,0
7.7300,0.09433288,0.13558849,9.74492546,0.00061100,0.00487399,0.01677077,1.07199148,-0.01673700,0.35192592,,,0.00000000,2.33634425,0.00000000,0
7.7400,-0.03557453,0.07203518,9.81802523,-0.00190732,-0.00034837,0.01162114,1.01299385,-0.01960594,0.37878701,,,0.00000000,2.34503470,0.00000000,0
7.7500,-0.05456566,0.18260064,9.87519366,-0.00085395,-0.00866677,0.01600534,1.04689234,-0.05488087,0.34774017,,,0.00000000,2.35372515,0.00000000,0
7.7600,0.07085525,0.09789644,9.93620082,-0.00465509,0.00191936,0.01255434,1.04437616,-0.03061849,0.37191096,,,0.00000000,2.36241561,0.00000000,0
7.7700,-0.02009207,0.13757345,9.98560185,0.00065612,0.00467596,0.02344793,1.02609391,-0.03906737,0.31852098,,,0.00000000,2.37110606,0.00000000,0
7.7800,0.04360583,0.10864063,9.89307039,0.00459744,0.00159486,0.01974387,1.05722410,-0.02011105,0.34893121,,,0.00000000,2.37979651,0.00000000,0
7.7900,0.05341064,0.17627932,10.01820549,0.00596424,-0.00557204,0.01602593,1.01366566,-0.01671542,0.33427577,,,0.00000000,2.38848696,0.00000000,0
7.8000,-0.02154563,0.19339756,10.31837634,-0.00075226,0.00167381,0.00971712,1.02133265,-0.05843129,0.33405860,,,0.00000000,2.39717742,0.00000000,0
7.8100,0.01580304,0.17602226,10.25638991,-0.00837598,-0.00111003,0.01005686,1.02615912,-0.04602920,0.37162081,,,0.00000000,2.40586787,0.00000000,0
7.8200,-0.16531719,0.15590264,10.30287921,0.01013188,0.00550114,0.01777023,1.05086004,-0.02867458,0.34664771,,,0.00000000,2.41455832,0.00000000,0
7.8300,0.15077504,0.12051647,10.45579853,-0.00424433,0.00142046,0.01437097,1.03948096,-0.04966673,0.36109004,,,0.00000000,2.42324878,0.00000000,0
7.8400,0.02252005,0.14711843,10.65205636,0.00086960,0.00151651,0.01620872,1.02610203,-0.03753803,0.36017047,,,0.00000000,2.43193923,0.00000000,0
7.8500,0.03578698,0.01678235,10.86873183,0.00105342,-0.00123753,0.00866767,1.02695658,-0.05077210,0.37040720,,,0.00000000,2.44062968,0.00000000,0
7.8600,0.10205383,0.27262793,11.13139862,0.00612921,0.00236193,0.00895170,1.01415236,-0.04917370,0.33746395,,,0.00000000,2.44932014,0.00000000,0
7.8700,0.06175471,0.19875657,11.32750031,-0.00296491,0.00076555,0.01543498,1.02914702,-0.03207767,0.30664208,,,0.00000000,2.45801059,0.00000000,0
7.8800,0.17310742,0.17894907,11.37488128,0.00342796,0.00588490,0.01414105,1.03248230,-0.00885650,0.37294200,,,0.00000000,2.46670104,0.00000000,0
7.8900,0.06067581,0.09460538,11.50022137,-0.00435632,0.00807917,0.00964052,1.05328356,-0.03123916,0.35828336,,,0.00000000,2.47539150,0.00000000,0
7.9000,0.05602569,0.00558416,11.34321398,0.00334525,0.00534094,0.01177213,1.03163721,-0.05519307,0.36039822,,,0.00000000,2.48408195,0.00000000,1
7.9100,-0.01373429,-0.10574442,11.49226550,-0.00141124,-0.00195843,0.01811418,1.05624156,-0.02549479,0.35457591,,,0.00000000,2.49297700,0.00000000,0
7.9200,0.04036291,-0.08905145,11.45975773,-0.00459897,-0.00121181,0.01323415,1.05307783,-0.02520171,0.37194254,,,0.00000000,2.50189240,0.00000000,0
7.9300,0.10934865,0.04201000,11.40727456,0.00261583,-0.00146010,0.01727554,1.03360088,-0.05712761,0.36238065,,,0.00000000,2.51080779,0.00000000,0
7.9400,0.18973324,-0.07195448,11.19048565,-0.00518780,0.00184512,0.02158632,1.05340803,-0.04176238,0.35856488,,,0.00000000,2.51972318,0.00000000,0
7.9500,0.07526783,0.04910466,10.99608712,0.00207138,-0.00103239,0.01632433,1.05092459,-0.07128848,0.39210089,,,0.00000000,2.52863858,0.00000000,0
7.9600,-0.01753342,-0.03965726,10.66457361,0.00089588,-0.00514126,0.01548910,1.05177648,-0.03302280,0.33743669,,,0.00000000,2.53755397,0.00000000,0
7.9700,-0.02039219,-0.00706798,10.43291738,-0.00120686,0.00369144,0.01259255,1.01605922,0.02061715,0.35003508,,,0.00000000,2.54646937,0.00000000,0
7.9800,-0.04365819,0.04105586,10.38062500,-0.00259967,0.00162582,0.01984649,1.05058838,-0.04003143,0.35005783,,,0.00000000,2.55538476,0.00000000,0
7.9900,0.07063638,-0.16134000,10.18559160,-0.00811950,0.00051982,0.00919337,1.04994898,-0.04431690,0.35378947,,,0.00000000,2.56430016,0.00000000,0
8.0000,-0.00443381,-0.01181547,10.09021786,-0.00555615,-0.00342472,0.01057906,1.03689859,-0.02272708,0.36802768,,,0.00000000,2.57321555,0.00000000,0
8.0100,0.11465717,-0.02255088,10.05312911,-0.00321341,-0.00246997,0.01490173,1.03725555,-0.00875106,0.34772466,,,0.00000000,2.58213094,0.00000000,0
8.0200,0.04108305,0.03593701,9.95146757,-0.00367232,-0.00335968,0.00907853,1.03408363,-0.02872863,0.35106887,,,0.00000000,2.59104634,0.00000000,0
8.0300,0.12979150,0.01385564,9.95765050,-0.00427379,-0.00480992,0.01889766,1.05183076,-0.07343381,0.32802437,,,0.00000000,2.59996173,0.00000000,0
8.0400,0.04333892,0.01690560,9.99710676,0.00484010,-0.00494448,0.01247351,1.00686588,-0.00859893,0.36752152,,,0.00000000,2.60887713,0.00000000,0
8.0500,0.11564220,0.00397612,9.96706187,0.00307880,-0.00067036,0.01709195,1.02939104,-0.02409150,0.32806561,,,0.00000000,2.61779252,0.00000000,0
8.0600,0.04946865,0.07305467,9.88309971,0.00154243,-0.00297671,0.01373549,1.03530165,-0.00744373,0.36488371,,,0.00000000,2.62670791,0.00000000,0
8.0700,-0.12601114,0.07909200,9.88692836,-0.00354764,0.00001679,0.01396454,1.07258638,-0.03750633,0.37259665,,,0.00000000,2.63562331,0.00000000,0
8.0800,-0.05368628,-0.04438760,9.80365319,-0.00287972,0.00387999,0.01502835,1.04166190,-0.02510027,0.35897323,,,0.00000000,2.64453870,0.00000000,0
8.0900,0.20801675,0.01085132,9.74671007,0.00354964,-0.00186609,0.00711873,1.05181569,-0.00968759,0.35604586,,,0.00000000,2.65345410,0.00000000,0
8.1000,0.08369316,-0.06117626,10.02441927,-0.00438439,0.00000062,0.01061776,1.04588108,-0.03143471,0.35950208,,,0.00000000,2.66236949,0.00000000,0
8.1100,-0.04421573,-0.20926236,9.87577565,-0.00684966,-0.00004445,0.01307925,1.02779078,-0.01457869,0.36589679,,,0.00000000,2.67128488,0.00000000,0
8.1200,0.01215781,-0.06298206,9.69893016,0.00330065,0.00115119,0.02385753,1.04514053,-0.03002817,0.34504336,,,0.00000000,2.68020028,0.00000000,0
8.1300,0.07414475,0.10410768,9.71737618,-0.00238816,-0.00976645,0.01822919,1.02576130,-0.04678840,0.34313142,,,0.00000000,2.68911567,0.00000000,0
8.1400,0.13369789,-0.07532399,10.05796254,0.00514557,0.00600321,0.01786729,1.05422553,-0.02325057,0.33345581,,,0.00000000,2.69803107,0.00000000,0
8.1500,0.07488063,-0.04489128,9.95844762,0.00122089,0.00234460,0.01081975,1.02544368,-0.00932641,0.38074970,,,0.00000000,2.70694646,0.00000000,0
8.1600,0.08208228,-0.07727252,9.92682403,-0.00681304,-0.00341608,0.01854334,1.05319938,0.00258314,0.34485670,,,0.00000000,2.71586185,0.00000000,0
8.1700,-0.00085567,-0.17294426,10.03252989,0.00468206,0.00097334,0.01995429,1.04708917,-0.03930473,0.38935000,,,0.00000000,2.72477725,0.00000000,0
8.1800,0.01203335,-0.07855095,9.89709868,-0.00149373,-0.00212029,0.01798206,1.04712235,-0.02299732,0.36126752,,,0.00000000,2.73369264,0.00000000,0
8.1900,-0.08477055,-0.13805151,9.83002858,-0.00757956,0.00061177,0.02547162,1.03017405,-0.03021188,0.32087130,,,0.00000000,2.74260804,0.00000000,0
